accel_x,accel_y,accel_z,gyro_x,gyro_y,gyro_z,label
1604240648.1207767,-1.0191650390625,-0.0794677734375,0.10888671875,1.9541984732824427,-1.366412213740458,15.893129770992367,pressup
1604240648.1607766,-1.0379638671875,-0.0467529296875,0.054931640625,1.9465648854961832,-1.5725190839694656,18.85496183206107,pressup
1604240648.2007766,-0.9998779296875,-0.0640869140625,0.067626953125,2.2977099236641223,7.435114503816794,21.564885496183205,pressup
1604240648.2407765,-1.0716552734375,-0.0467529296875,0.03955078125,1.1984732824427482,-1.0763358778625953,23.709923664122137,pressup
1604240648.2807765,-0.9454345703125,-0.0338134765625,0.04296875,4.557251908396947,1.6946564885496183,24.68702290076336,pressup
1604240648.3207765,-0.9871826171875,-0.0108642578125,0.06689453125,3.564885496183206,4.847328244274809,28.84732824427481,pressup
1604240648.3607764,-1.0003662109375,0.024169921875,0.057373046875,4.030534351145038,1.6717557251908397,27.00763358778626,pressup
1604240648.4007764,-1.0079345703125,0.039794921875,0.04833984375,2.4427480916030535,2.7938931297709924,29.412213740458014,pressup
1604240648.4407763,-0.9588623046875,0.070556640625,0.0380859375,2.3435114503816794,-0.5038167938931297,29.68702290076336,pressup
1604240648.4807763,-0.9830322265625,0.107177734375,0.029541015625,0.7480916030534351,-2.9923664122137406,29.80916030534351,pressup
1604240648.5207763,-0.8865966796875,0.063720703125,-0.0333251953125,-2.9160305343511452,-4.206106870229007,29.96946564885496,pressup
1604240648.5607762,-0.9166259765625,0.111328125,-0.0025634765625,-3.045801526717557,4.366412213740458,25.85496183206107,pressup
1604240648.6007762,-0.8597412109375,0.120361328125,-0.0179443359375,-7.244274809160306,-12.564885496183207,27.083969465648856,pressup
1604240648.6407762,-0.7908935546875,0.135498046875,0.057861328125,-3.0076335877862594,1.984732824427481,21.49618320610687,pressup
1604240648.6807761,-0.8612060546875,0.166015625,0.0302734375,-0.5267175572519084,-17.938931297709924,15.351145038167939,pressup
1604240648.720776,-0.6776123046875,0.19775390625,0.06884765625,3.3969465648854964,-11.15267175572519,3.4122137404580153,pressup
1604240648.760776,-0.6038818359375,0.325927734375,0.06982421875,4.885496183206107,-0.8015267175572519,-4.099236641221374,pressup
1604240648.800776,-0.7012939453125,0.2587890625,0.10791015625,4.183206106870229,3.3740458015267176,-7.465648854961832,pressup
1604240648.840776,-0.7772216796875,0.22998046875,0.087890625,1.1145038167938932,5.229007633587786,-17.84732824427481,pressup
1604240648.880776,-0.6844482421875,0.18798828125,0.021728515625,-0.22900763358778625,16.96946564885496,-21.450381679389313,pressup
1604240648.920776,-0.9005126953125,0.11962890625,0.0263671875,-0.24427480916030533,15.358778625954198,-25.564885496183205,pressup
1604240648.9607759,-0.8458251953125,0.11572265625,-0.0010986328125,-0.16030534351145037,7.679389312977099,-31.96946564885496,pressup
1604240649.0007758,-0.8907470703125,0.010498046875,-0.0240478515625,1.4198473282442747,14.473282442748092,-30.587786259541986,pressup
1604240649.0407758,-1.0936279296875,0.103515625,0.040283203125,4.511450381679389,0.7404580152671756,-33.55725190839695,pressup
1604240649.0807757,-0.8963623046875,-0.0130615234375,0.01025390625,3.7404580152671754,-8.961832061068701,-32.404580152671755,pressup
1604240649.1207757,-0.9947509765625,0.033935546875,-0.0054931640625,1.2900763358778626,-3.6717557251908395,-32.908396946564885,pressup
1604240649.1607757,-1.0147705078125,0.0537109375,-0.0123291015625,-0.816793893129771,-5.320610687022901,-26.38167938931298,pressup
1604240649.2007756,-1.0238037109375,-0.0389404296875,-0.0443115234375,-1.083969465648855,-10.709923664122137,-27.30534351145038,pressup
1604240649.2407756,-1.0416259765625,-0.0435791015625,0.021484375,0.9618320610687023,-8.86259541984733,-25.328244274809162,pressup
1604240649.2807755,-1.0291748046875,-0.0216064453125,0.025146484375,2.931297709923664,-6.648854961832061,-22.31297709923664,pressup
1604240649.3207755,-1.0692138671875,-0.0921630859375,0.055908203125,0.4580152671755725,-4.541984732824427,-16.282442748091604,pressup
1604240649.3607755,-1.0968017578125,-0.0850830078125,0.049072265625,-2.0076335877862594,-9.091603053435115,-10.977099236641221,pressup
1604240649.4007754,-1.0653076171875,-0.0697021484375,0.065673828125,0.8778625954198473,-8.0,-10.633587786259541,pressup
1604240649.4407754,-1.1019287109375,-0.1063232421875,0.063232421875,1.4045801526717556,-5.00763358778626,-4.0458015267175576,pressup
1604240649.4807754,-1.0633544921875,-0.0921630859375,0.093994140625,1.6641221374045803,-5.129770992366412,0.5572519083969466,pressup
1604240649.5207753,-1.0938720703125,-0.1405029296875,0.072021484375,1.3282442748091603,-3.0229007633587788,5.961832061068702,pressup
1604240649.5607753,-1.1368408203125,-0.1033935546875,0.09521484375,2.8702290076335877,2.5801526717557253,5.877862595419847,pressup
1604240649.6007752,-1.0867919921875,-0.1190185546875,0.1083984375,2.7480916030534353,-4.809160305343512,15.0,pressup
1604240649.6407752,-1.0689697265625,-0.0772705078125,0.105224609375,2.030534351145038,-2.4122137404580153,15.694656488549619,pressup
1604240649.6807752,-1.0430908203125,-0.0955810546875,0.074951171875,4.244274809160306,-6.282442748091603,23.34351145038168,pressup
1604240649.7207751,-1.0223388671875,-0.0562744140625,0.06591796875,4.229007633587786,0.03816793893129771,22.740458015267176,pressup
1604240649.760775,-0.9859619140625,-0.0220947265625,0.080810546875,4.015267175572519,3.236641221374046,25.80916030534351,pressup
1604240649.800775,-1.0289306640625,-0.0245361328125,0.068115234375,3.5419847328244276,4.984732824427481,27.53435114503817,pressup
1604240649.840775,-1.0015869140625,0.00244140625,0.070068359375,4.175572519083969,7.778625954198473,28.068702290076335,pressup
1604240649.880775,-1.0172119140625,0.037841796875,0.05078125,4.770992366412214,-0.7099236641221374,29.763358778625953,pressup
1604240649.920775,-0.9488525390625,0.110107421875,0.037841796875,3.687022900763359,3.969465648854962,30.137404580152673,pressup
1604240649.960775,-0.8802490234375,0.09130859375,0.024169921875,2.282442748091603,-2.763358778625954,28.85496183206107,pressup
1604240650.0007749,-0.7833251953125,0.132568359375,0.01318359375,2.595419847328244,4.236641221374046,22.34351145038168,pressup
1604240650.0407748,-0.7467041015625,0.150146484375,-0.0118408203125,-0.42748091603053434,4.961832061068702,13.702290076335878,pressup
1604240650.0807748,-0.7064208984375,0.14306640625,0.015869140625,-2.435114503816794,13.564885496183207,6.419847328244275,pressup
1604240650.1207747,-0.7930908203125,0.18896484375,0.001220703125,-0.7862595419847328,10.267175572519085,-1.786259541984733,pressup
1604240650.1607747,-0.9237060546875,0.1875,-0.0172119140625,-12.648854961832061,-24.786259541984734,-0.5648854961832062,pressup
1604240650.2007747,-0.7596435546875,0.243896484375,-0.0526123046875,-17.17557251908397,6.694656488549619,3.0610687022900764,pressup
1604240650.2407746,-0.5718994140625,0.174560546875,0.01806640625,-6.145038167938932,15.793893129770993,25.793893129770993,pressup
1604240650.2807746,-1.4310302734375,0.09521484375,0.040283203125,1.786259541984733,18.396946564885496,0.5648854961832062,pressup
1604240650.3207746,-0.8077392578125,0.225341796875,0.072265625,1.0381679389312977,22.709923664122137,-6.083969465648855,pressup
1604240650.3607745,-0.7730712890625,0.05419921875,-0.1085205078125,5.465648854961832,24.259541984732824,-6.351145038167939,pressup
1604240650.4007745,-1.0333251953125,0.169677734375,0.154296875,6.572519083969466,44.01526717557252,-7.061068702290076,pressup
1604240650.4407744,-0.9395751953125,0.0712890625,0.05126953125,8.49618320610687,-5.183206106870229,9.625954198473282,pressup
1604240650.4807744,-1.0328369140625,0.0166015625,0.02978515625,0.8473282442748091,-12.030534351145038,-14.381679389312977,pressup
1604240650.5207744,-0.8990478515625,0.20263671875,-0.0518798828125,-4.259541984732825,17.946564885496183,-41.58015267175573,pressup
1604240650.5607743,-0.9254150390625,-0.0072021484375,-0.0311279296875,6.099236641221374,-5.114503816793893,-36.76335877862596,pressup
1604240650.6007743,-0.8450927734375,0.077880859375,-0.1087646484375,11.709923664122137,-20.778625954198475,-18.3206106870229,pressup
1604240650.6407743,-0.8424072265625,0.010009765625,-0.0662841796875,17.541984732824428,-26.603053435114504,-19.541984732824428,pressup
1604240650.6807742,-0.8973388671875,0.1025390625,-0.0340576171875,12.877862595419847,-21.374045801526716,-29.931297709923665,pressup
1604240650.7207742,-0.8656005859375,0.090087890625,-0.0477294921875,8.396946564885496,-23.740458015267176,-27.85496183206107,pressup
1604240650.7607741,-0.9158935546875,0.107666015625,0.033203125,6.099236641221374,-18.908396946564885,-23.870229007633586,pressup
1604240650.800774,-0.9620361328125,0.0302734375,-0.0142822265625,-2.145038167938931,-17.251908396946565,-15.435114503816793,pressup
1604240650.840774,-1.0572509765625,0.034912109375,0.036865234375,4.145038167938932,-18.51145038167939,-17.770992366412212,pressup
1604240650.880774,-1.0718994140625,-0.0872802734375,0.023681640625,-0.5648854961832062,-15.49618320610687,-14.038167938931299,pressup
1604240650.920774,-1.1148681640625,-0.0501708984375,0.1025390625,-0.061068702290076333,-6.282442748091603,-13.946564885496183,pressup
1604240650.960774,-1.1021728515625,-0.0709228515625,0.1083984375,-1.9541984732824427,-0.8702290076335878,-8.213740458015268,pressup
1604240651.000774,-1.0841064453125,-0.0484619140625,0.098388671875,-2.946564885496183,0.7099236641221374,-2.0381679389312977,pressup
1604240651.0407739,-1.1712646484375,-0.0640869140625,0.100341796875,1.2366412213740459,9.763358778625955,-0.6564885496183206,pressup
1604240651.0807738,-1.2130126953125,-0.0999755859375,0.099609375,1.7099236641221374,-5.488549618320611,7.702290076335878,pressup
1604240651.1207738,-1.0797119140625,-0.1170654296875,0.078857421875,3.5343511450381677,-3.519083969465649,13.50381679389313,pressup
1604240651.1607738,-1.0755615234375,-0.0894775390625,0.05224609375,2.068702290076336,-1.4885496183206106,16.81679389312977,pressup
1604240651.2007737,-1.0618896484375,-0.0765380859375,0.043701171875,4.893129770992366,4.702290076335878,21.786259541984734,pressup
1604240651.2407737,-1.0533447265625,-0.0435791015625,0.10400390625,4.572519083969466,2.114503816793893,21.732824427480917,pressup
1604240651.2807736,-1.0250244140625,-0.0413818359375,0.055419921875,4.8320610687022905,2.6259541984732824,23.50381679389313,pressup
1604240651.3207736,-1.0343017578125,-0.0128173828125,0.0888671875,6.687022900763359,5.9541984732824424,28.53435114503817,pressup
1604240651.3607736,-1.0079345703125,0.0458984375,0.088623046875,6.305343511450381,-3.648854961832061,31.549618320610687,pressup
1604240651.4007735,-0.9244384765625,0.03271484375,0.070556640625,7.67175572519084,0.4732824427480916,28.16793893129771,pressup
1604240651.4407735,-0.8448486328125,0.100341796875,0.025390625,6.793893129770993,-2.564885496183206,28.702290076335878,pressup
1604240651.4807734,-0.8077392578125,0.150634765625,0.01220703125,4.893129770992366,3.8244274809160306,21.61832061068702,pressup
1604240651.5207734,-0.7603759765625,0.16748046875,0.00244140625,4.290076335877862,-2.435114503816794,11.916030534351146,pressup
1604240651.5607734,-0.5828857421875,0.1875,-0.0465087890625,0.2748091603053435,8.98473282442748,5.847328244274809,pressup
1604240651.6007733,-0.7022705078125,0.17724609375,-0.0367431640625,0.20610687022900764,11.641221374045802,-4.641221374045801,pressup
1604240651.6407733,-0.7640380859375,0.153076171875,-0.0108642578125,-1.381679389312977,-0.6030534351145038,-11.625954198473282,pressup
1604240651.6807733,-0.6824951171875,0.224609375,-0.0081787109375,0.25190839694656486,-2.83206106870229,-18.66412213740458,pressup
1604240651.7207732,-0.7987060546875,0.1484375,-0.0435791015625,1.3282442748091603,-10.816793893129772,-18.229007633587788,pressup
1604240651.7607732,-0.8775634765625,0.144287109375,-0.0133056640625,-2.6564885496183206,-7.694656488549619,-16.0381679389313,pressup
1604240651.8007731,-0.8812255859375,0.06201171875,0.003173828125,-5.137404580152672,-6.267175572519084,-25.717557251908396,pressup
1604240651.840773,-0.9627685546875,-0.0462646484375,0.01953125,-6.656488549618321,1.6564885496183206,-28.9618320610687,pressup
1604240651.880773,-1.0426025390625,-0.0108642578125,0.063232421875,-0.9465648854961832,0.08396946564885496,-30.893129770992367,pressup
1604240651.920773,-0.9381103515625,-0.0240478515625,0.04345703125,-0.21374045801526717,-13.114503816793894,-25.549618320610687,pressup
1604240651.960773,-1.0460205078125,-0.0455322265625,0.06787109375,2.381679389312977,-13.007633587786259,-23.47328244274809,pressup
1604240652.000773,-0.9613037109375,0.004638671875,0.093994140625,0.8625954198473282,-8.129770992366412,-24.87786259541985,pressup
1604240652.040773,-1.0181884765625,-0.0516357421875,0.0625,-1.0381679389312977,-9.549618320610687,-20.702290076335878,pressup
1604240652.0807729,-0.9925537109375,-0.0648193359375,0.100341796875,-1.7557251908396947,-3.2900763358778624,-17.870229007633586,pressup
1604240652.1207728,-1.0604248046875,-0.0687255859375,0.087646484375,-2.2595419847328246,0.48091603053435117,-14.16793893129771,pressup
1604240652.1607728,-1.0723876953125,-0.0745849609375,0.11328125,-2.763358778625954,-2.786259541984733,-13.900763358778626,pressup
1604240652.2007728,-1.0579833984375,-0.1307373046875,0.046875,-2.5343511450381677,0.4122137404580153,-8.610687022900763,pressup
1604240652.2407727,-1.0804443359375,-0.1063232421875,0.06396484375,-1.9923664122137406,2.49618320610687,-2.5419847328244276,pressup
1604240652.2807727,-1.0609130859375,-0.1561279296875,0.073486328125,-0.24427480916030533,0.20610687022900764,-0.9541984732824428,pressup
1604240652.3207726,-1.0909423828125,-0.0938720703125,0.07470703125,0.7251908396946565,7.488549618320611,2.6946564885496183,pressup
1604240652.3607726,-1.1209716796875,-0.1256103515625,0.080078125,1.7938931297709924,2.9083969465648853,9.213740458015268,pressup
1604240652.4007726,-1.1556396484375,-0.1121826171875,0.099853515625,3.8625954198473282,3.7404580152671754,14.595419847328245,pressup
1604240652.4407725,-1.0804443359375,-0.1234130859375,0.048583984375,1.748091603053435,-1.5954198473282444,19.282442748091604,pressup
1604240652.4807725,-1.0826416015625,-0.0889892578125,0.090576171875,2.030534351145038,5.8320610687022905,23.259541984732824,pressup
1604240652.5207725,-1.0394287109375,-0.0811767578125,0.0517578125,3.282442748091603,-2.4885496183206106,26.16030534351145,pressup
1604240652.5607724,-1.0140380859375,-0.0291748046875,0.049560546875,2.984732824427481,-0.16793893129770993,28.954198473282442,pressup
1604240652.6007724,-0.9715576171875,-0.0462646484375,0.043701171875,4.564885496183206,0.4122137404580153,28.717557251908396,pressup
1604240652.6407723,-0.9676513671875,0.03076171875,0.065185546875,3.381679389312977,2.50381679389313,30.84732824427481,pressup
1604240652.6807723,-0.9449462890625,0.049072265625,0.056640625,4.587786259541985,0.7633587786259542,30.427480916030536,pressup
1604240652.7207723,-0.9127197265625,0.06494140625,0.035400390625,4.091603053435114,1.4274809160305344,31.427480916030536,pressup
1604240652.7607722,-0.9044189453125,0.09716796875,0.0078125,2.366412213740458,-4.809160305343512,31.221374045801525,pressup
1604240652.8007722,-0.8043212890625,0.123046875,-0.0042724609375,4.458015267175573,8.702290076335878,25.709923664122137,pressup
1604240652.8407722,-0.8543701171875,0.14208984375,-0.0113525390625,1.5190839694656488,-3.0763358778625953,19.206106870229007,pressup
1604240652.880772,-0.6505126953125,0.158447265625,-0.0240478515625,0.37404580152671757,2.8473282442748094,8.244274809160306,pressup
1604240652.920772,-0.7325439453125,0.149169921875,0.0048828125,-0.5114503816793893,15.931297709923664,-0.2748091603053435,pressup
1604240652.960772,-0.7630615234375,0.1416015625,0.026123046875,-0.24427480916030533,-5.229007633587786,-12.404580152671755,pressup
1604240653.000772,-0.6612548828125,0.2451171875,0.03125,3.068702290076336,3.8625954198473282,-18.480916030534353,pressup
1604240653.040772,-0.7720947265625,0.19970703125,-0.0059814453125,1.4732824427480915,-8.687022900763358,-15.061068702290076,pressup
1604240653.080772,-0.8778076171875,0.134033203125,0.029052734375,2.0839694656488548,-11.221374045801527,-19.862595419847327,pressup
1604240653.120772,-0.8306884765625,0.13330078125,0.02734375,-2.1908396946564888,-8.572519083969466,-24.50381679389313,pressup
1604240653.1607718,-0.8397216796875,0.0634765625,0.02490234375,-1.0229007633587786,0.5267175572519084,-30.908396946564885,pressup
1604240653.2007718,-0.9483642578125,0.02783203125,0.01708984375,-2.5419847328244276,1.4961832061068703,-33.68702290076336,pressup
1604240653.2407718,-0.9517822265625,0.05224609375,0.03857421875,-0.8778625954198473,1.9770992366412214,-34.19083969465649,pressup
1604240653.2807717,-0.9703369140625,-0.0357666015625,0.04736328125,-1.6488549618320612,-7.9465648854961835,-30.374045801526716,pressup
1604240653.3207717,-0.9576416015625,-0.0355224609375,0.024658203125,-1.8549618320610688,-2.969465648854962,-31.587786259541986,pressup
1604240653.3607717,-1.0489501953125,-0.0799560546875,0.08251953125,-0.8702290076335878,8.732824427480915,-26.977099236641223,pressup
1604240653.4007716,-1.1929931640625,-0.1163330078125,0.0244140625,-1.6717557251908397,-17.786259541984734,-23.404580152671755,pressup
1604240653.4407716,-0.9718017578125,-0.0816650390625,0.028564453125,1.1755725190839694,-3.6793893129770994,-19.83969465648855,pressup
1604240653.4807715,-1.1077880859375,-0.1888427734375,0.052001953125,2.4427480916030535,-8.702290076335878,-14.954198473282442,pressup
1604240653.5207715,-1.0194091796875,-0.0875244140625,0.044189453125,4.351145038167939,-6.137404580152672,-14.732824427480915,pressup
1604240653.5607715,-1.0806884765625,-0.1229248046875,0.047119140625,1.8549618320610688,-12.366412213740459,-3.5572519083969465,pressup
1604240653.6007714,-1.0811767578125,-0.1239013671875,0.05419921875,0.8320610687022901,-4.206106870229007,-1.9923664122137406,pressup
1604240653.6407714,-1.1177978515625,-0.1678466796875,0.0595703125,-3.2519083969465647,0.6259541984732825,4.6183206106870225,pressup
1604240653.6807714,-1.1104736328125,-0.1300048828125,0.072509765625,-0.6259541984732825,3.931297709923664,5.3816793893129775,pressup
1604240653.7207713,-1.1597900390625,-0.1824951171875,0.10595703125,-0.366412213740458,1.3511450381679388,12.007633587786259,pressup
1604240653.7607713,-1.1165771484375,-0.1033935546875,0.099853515625,3.145038167938931,1.8396946564885497,17.068702290076335,pressup
1604240653.8007712,-1.1009521484375,-0.0889892578125,0.079345703125,1.717557251908397,-4.442748091603053,23.923664122137403,pressup
1604240653.8407712,-1.0321044921875,-0.0645751953125,0.080322265625,4.0,-5.809160305343512,25.328244274809162,pressup
1604240653.8807712,-0.9671630859375,-0.0550537109375,0.07373046875,2.4198473282442747,-3.7709923664122136,29.938931297709924,pressup
1604240653.9207711,-0.9805908203125,-0.0472412109375,0.069091796875,2.9923664122137406,-2.0839694656488548,30.221374045801525,pressup
1604240653.960771,-0.9547119140625,-0.0394287109375,0.07958984375,5.694656488549619,-1.5038167938931297,29.625954198473284,pressup
1604240654.000771,-0.9049072265625,-0.0067138671875,0.057861328125,5.198473282442748,0.8091603053435115,30.00763358778626,pressup
1604240654.040771,-0.9749755859375,0.0283203125,0.064453125,4.6183206106870225,6.885496183206107,29.732824427480917,pressup
1604240654.080771,-0.9361572265625,0.066650390625,0.0400390625,4.687022900763359,-6.648854961832061,29.755725190839694,pressup
1604240654.120771,-0.8380126953125,0.0947265625,0.05517578125,4.190839694656488,1.6259541984732824,27.763358778625953,pressup
1604240654.160771,-0.8658447265625,0.15478515625,0.003662109375,0.12213740458015267,2.4122137404580153,26.374045801526716,pressup
1604240654.2007709,-0.7464599609375,0.112060546875,-0.0020751953125,1.465648854961832,4.122137404580153,16.259541984732824,pressup
1604240654.2407708,-0.8304443359375,0.138671875,0.051513671875,0.7251908396946565,8.007633587786259,10.183206106870228,pressup
1604240654.2807708,-0.7220458984375,0.1181640625,0.02734375,-0.8625954198473282,2.7557251908396947,-0.061068702290076333,pressup
1604240654.3207707,-0.7015380859375,0.158203125,0.029541015625,0.5572519083969466,3.3740458015267176,-12.870229007633588,pressup
1604240654.3607707,-0.7322998046875,0.233154296875,-0.0113525390625,-0.9007633587786259,-0.0916030534351145,-16.17557251908397,pressup
1604240654.4007707,-0.7010498046875,0.219482421875,-0.0137939453125,-0.6106870229007634,-4.267175572519084,-16.16030534351145,pressup
1604240654.4407706,-0.8045654296875,0.138671875,0.031005859375,-0.7480916030534351,-1.3358778625954197,-19.061068702290076,pressup
1604240654.4807706,-0.9232177734375,0.154296875,0.019287109375,-2.312977099236641,-6.198473282442748,-24.580152671755727,pressup
1604240654.5207705,-0.8323974609375,0.044189453125,0.07763671875,-3.2977099236641223,0.015267175572519083,-28.091603053435115,pressup
1604240654.5607705,-0.9317626953125,0.064697265625,0.060546875,-2.83206106870229,-5.030534351145038,-31.129770992366414,pressup
1604240654.6007705,-0.8978271484375,-0.0037841796875,0.0595703125,-0.10687022900763359,0.06870229007633588,-29.16030534351145,pressup
1604240654.6407704,-0.9869384765625,-0.0123291015625,0.0419921875,-2.183206106870229,-4.0534351145038165,-30.290076335877863,pressup
1604240654.6807704,-1.0760498046875,0.006591796875,0.0576171875,-1.3129770992366412,4.595419847328245,-32.19083969465649,pressup
1604240654.7207704,-1.0423583984375,-0.0909423828125,0.095703125,-3.015267175572519,-0.2595419847328244,-28.045801526717558,pressup
1604240654.7607703,-0.9971923828125,-0.1021728515625,0.039794921875,-2.145038167938931,-3.8396946564885495,-24.38167938931298,pressup
1604240654.8007703,-1.0257568359375,-0.1024169921875,0.052978515625,-0.2824427480916031,1.8854961832061068,-19.81679389312977,pressup
1604240654.8407702,-1.1602783203125,-0.1163330078125,0.05126953125,1.3740458015267176,-9.038167938931299,-14.870229007633588,pressup
1604240654.8807702,-1.0950927734375,-0.0855712890625,0.034423828125,0.3511450381679389,-2.8931297709923665,-10.274809160305344,pressup
1604240654.9207702,-1.1114501953125,-0.1763916015625,0.02783203125,-2.0076335877862594,1.3129770992366412,-3.2977099236641223,pressup
1604240654.9607701,-1.1715087890625,-0.1646728515625,0.0673828125,-0.5419847328244275,7.412213740458015,0.6412213740458015,pressup
1604240655.00077,-1.1729736328125,-0.1871337890625,0.071533203125,-0.8396946564885496,5.641221374045801,5.2748091603053435,pressup
1604240655.04077,-1.1788330078125,-0.1688232421875,0.073486328125,2.8091603053435112,6.419847328244275,12.198473282442748,pressup
1604240655.08077,-1.1190185546875,-0.1461181640625,0.101318359375,3.6259541984732824,-2.312977099236641,17.954198473282442,pressup
1604240655.12077,-1.0870361328125,-0.1126708984375,0.070068359375,2.572519083969466,-2.5267175572519083,25.458015267175572,pressup
1604240655.16077,-1.0272216796875,-0.0821533203125,0.062255859375,2.7099236641221376,-2.9770992366412212,25.022900763358777,pressup
1604240655.20077,-0.9549560546875,-0.0704345703125,0.044677734375,3.4122137404580153,-1.2061068702290076,28.717557251908396,pressup
1604240655.2407699,-0.9576416015625,-0.0606689453125,0.034423828125,3.3206106870229006,3.0610687022900764,27.47328244274809,pressup
1604240655.2807698,-0.9598388671875,0.000732421875,0.002685546875,4.183206106870229,0.7557251908396947,30.15267175572519,pressup
1604240655.3207698,-0.9249267578125,0.007568359375,0.061767578125,6.1603053435114505,-2.5572519083969465,30.129770992366414,pressup
1604240655.3607697,-0.9791259765625,0.102783203125,0.02685546875,6.175572519083969,-7.66412213740458,31.19083969465649,pressup
1604240655.4007697,-0.8726806640625,0.09619140625,0.04248046875,5.801526717557252,-18.87786259541985,30.65648854961832,pressup
1604240655.4407697,-0.7291259765625,0.152099609375,-0.0211181640625,3.1908396946564888,-7.969465648854962,24.46564885496183,pressup
1604240655.4807696,-0.7210693359375,0.081787109375,0.0078125,3.3740458015267176,-0.25190839694656486,16.00763358778626,pressup
1604240655.5207696,-0.7408447265625,0.080078125,0.03466796875,2.5877862595419847,2.183206106870229,3.9389312977099236,pressup
1604240655.5607696,-0.7313232421875,0.14306640625,0.0458984375,-0.2595419847328244,0.5038167938931297,-3.9923664122137406,pressup
1604240655.6007695,-0.7650146484375,0.17578125,0.0302734375,-4.259541984732825,5.0534351145038165,-14.206106870229007,pressup
1604240655.6407695,-0.6988525390625,0.189453125,0.017333984375,-3.4732824427480917,2.7938931297709924,-18.33587786259542,pressup
1604240655.6807694,-0.8072509765625,0.152099609375,0.081298828125,-0.7175572519083969,0.5267175572519084,-14.83969465648855,pressup
1604240655.7207694,-0.8609619140625,0.111083984375,0.040283203125,-0.1450381679389313,-11.282442748091603,-17.83206106870229,pressup
1604240655.7607694,-0.8856201171875,0.08154296875,0.05908203125,-0.6717557251908397,-3.5419847328244276,-24.389312977099237,pressup
1604240655.8007693,-0.8841552734375,0.068115234375,0.044189453125,-0.015267175572519083,-2.2061068702290076,-25.595419847328245,pressup
1604240655.8407693,-0.9686279296875,0.06103515625,0.053466796875,0.31297709923664124,-3.2595419847328246,-24.85496183206107,pressup
1604240655.8807693,-1.0106201171875,-0.0377197265625,0.0390625,-0.6335877862595419,-15.213740458015268,-21.3206106870229,pressup
1604240655.9207692,-0.9749755859375,-0.0245361328125,0.035400390625,-2.732824427480916,1.0381679389312977,-24.625954198473284,pressup
1604240655.9607692,-1.0645751953125,-0.0936279296875,0.09375,-1.8625954198473282,2.8473282442748094,-24.389312977099237,pressup
1604240656.0007691,-1.0799560546875,-0.0645751953125,0.057861328125,-4.351145038167939,-7.320610687022901,-22.984732824427482,pressup
1604240656.040769,-0.9256591796875,-0.0643310546875,0.036376953125,-2.66412213740458,0.5801526717557252,-18.893129770992367,pressup
1604240656.080769,-1.0538330078125,-0.1346435546875,0.08837890625,-1.3053435114503817,0.8549618320610687,-15.465648854961833,pressup
1604240656.120769,-1.0731201171875,-0.0797119140625,0.081298828125,0.26717557251908397,1.8396946564885497,-14.374045801526718,pressup
1604240656.160769,-1.0870361328125,-0.1004638671875,0.065185546875,-0.22137404580152673,1.015267175572519,-9.877862595419847,pressup
1604240656.200769,-1.1102294921875,-0.0814208984375,0.09326171875,0.3816793893129771,-4.251908396946565,-2.7404580152671754,pressup
1604240656.240769,-1.1134033203125,-0.0924072265625,0.065185546875,1.6717557251908397,-1.0,1.83206106870229,pressup
1604240656.2807689,-1.1654052734375,-0.1092529296875,0.097900390625,1.8015267175572518,0.3511450381679389,9.511450381679388,pressup
1604240656.3207688,-1.1348876953125,-0.1319580078125,0.079345703125,3.0229007633587788,-7.923664122137405,12.32824427480916,pressup
1604240656.3607688,-1.0518798828125,-0.1011962890625,0.068603515625,2.068702290076336,1.8549618320610688,14.34351145038168,pressup
1604240656.4007688,-1.0526123046875,-0.1148681640625,0.08251953125,3.816793893129771,-1.6641221374045803,20.114503816793892,pressup
1604240656.4407687,-1.0316162109375,-0.0577392578125,0.097412109375,2.3282442748091605,2.030534351145038,22.938931297709924,pressup
1604240656.4807687,-1.0079345703125,-0.0797119140625,0.096435546875,1.0534351145038168,-1.7633587786259541,25.0,pressup
1604240656.5207686,-0.9615478515625,-0.0623779296875,0.10595703125,2.0763358778625953,3.854961832061069,25.885496183206108,pressup
1604240656.5607686,-0.9981689453125,-0.0333251953125,0.065185546875,2.4122137404580153,-0.8473282442748091,28.33587786259542,pressup
1604240656.6007686,-0.9959716796875,0.00439453125,0.080078125,4.374045801526718,-6.175572519083969,28.31297709923664,pressup
1604240656.6407685,-0.8785400390625,0.02734375,0.053955078125,3.9160305343511452,-2.5572519083969465,28.709923664122137,pressup
1604240656.6807685,-0.9439697265625,0.0927734375,0.055419921875,6.312977099236641,-2.4580152671755724,28.442748091603054,pressup
1604240656.7207685,-0.8670654296875,0.087890625,0.054931640625,6.076335877862595,-8.625954198473282,26.33587786259542,pressup
1604240656.7607684,-0.8018798828125,0.154052734375,0.04052734375,3.49618320610687,-7.259541984732825,20.603053435114504,pressup
1604240656.8007684,-0.6846923828125,0.122802734375,0.021728515625,2.1603053435114505,-2.030534351145038,15.068702290076336,pressup
1604240656.8407683,-0.7354736328125,0.13916015625,0.06787109375,3.7709923664122136,8.511450381679388,4.0534351145038165,pressup
1604240656.8807683,-0.7740478515625,0.14306640625,0.058349609375,-0.6412213740458015,-1.3206106870229009,-4.0,pressup
1604240656.9207683,-0.7547607421875,0.174072265625,0.056640625,-0.7938931297709924,5.083969465648855,-13.770992366412214,pressup
1604240656.9607682,-0.7508544921875,0.1845703125,0.04345703125,-2.1603053435114505,1.8244274809160306,-15.320610687022901,pressup
1604240657.0007682,-0.8177490234375,0.126220703125,0.040771484375,-0.4580152671755725,3.427480916030534,-18.419847328244273,pressup
1604240657.0407681,-0.8951416015625,0.096923828125,0.04296875,-2.3893129770992365,1.916030534351145,-21.114503816793892,pressup
1604240657.080768,-0.8887939453125,0.056884765625,0.03173828125,-1.16793893129771,1.7328244274809161,-26.0381679389313,pressup
1604240657.120768,-0.9403076171875,-0.0091552734375,0.0498046875,-2.015267175572519,3.2290076335877864,-26.923664122137403,pressup
1604240657.160768,-0.9810791015625,0.0556640625,0.049072265625,-0.1450381679389313,0.3969465648854962,-30.931297709923665,pressup
1604240657.200768,-0.9354248046875,-0.0186767578125,0.0595703125,-2.0763358778625953,-3.717557251908397,-24.068702290076335,pressup
1604240657.240768,-1.0255126953125,0.00390625,0.044921875,-4.106870229007634,5.32824427480916,-27.27480916030534,pressup
1604240657.280768,-1.0343017578125,-0.0230712890625,0.067138671875,-2.0229007633587788,2.717557251908397,-24.50381679389313,pressup
1604240657.3207679,-0.9822998046875,-0.0570068359375,0.020751953125,-2.1526717557251906,-6.679389312977099,-19.96946564885496,pressup
1604240657.3607678,-0.9078369140625,-0.0538330078125,0.023681640625,1.7938931297709924,-7.732824427480916,-15.916030534351146,pressup
1604240657.4007678,-1.0465087890625,-0.1165771484375,0.00927734375,-1.6717557251908397,3.8244274809160306,-16.900763358778626,pressup
1604240657.4407678,-1.0157470703125,-0.0672607421875,0.04345703125,1.366412213740458,-7.961832061068702,-17.27480916030534,pressup
1604240657.4807677,-1.1158447265625,-0.1180419921875,0.068603515625,0.5648854961832062,1.0458015267175573,-6.564885496183206,pressup
1604240657.5207677,-1.1202392578125,-0.1048583984375,0.06591796875,1.366412213740458,-8.84732824427481,-6.862595419847328,pressup
1604240657.5607677,-1.1033935546875,-0.1666259765625,0.0615234375,-0.816793893129771,-1.717557251908397,3.183206106870229,pressup
1604240657.6007676,-1.1873779296875,-0.1063232421875,0.07763671875,-0.9923664122137404,1.1984732824427482,6.068702290076335,pressup
1604240657.6407676,-1.1619873046875,-0.1453857421875,0.084228515625,1.015267175572519,0.09923664122137404,10.900763358778626,pressup
1604240657.6807675,-1.1387939453125,-0.1678466796875,0.0634765625,0.5725190839694656,3.282442748091603,16.206106870229007,pressup
1604240657.7207675,-1.1092529296875,-0.1072998046875,0.080322265625,1.816793893129771,1.450381679389313,19.106870229007633,pressup
1604240657.7607675,-1.0738525390625,-0.1036376953125,0.074951171875,2.1755725190839694,-0.8625954198473282,23.519083969465647,pressup
1604240657.8007674,-1.0274658203125,-0.0640869140625,0.10693359375,4.106870229007634,-3.5877862595419847,29.19083969465649,pressup
1604240657.8407674,-0.9305419921875,-0.0523681640625,0.03271484375,1.9389312977099236,-4.1603053435114505,31.51145038167939,pressup
1604240657.8807673,-0.9810791015625,-0.0198974609375,0.0732421875,2.450381679389313,5.511450381679389,33.50381679389313,pressup
1604240657.9207673,-0.9422607421875,-0.0037841796875,0.042236328125,3.236641221374046,-4.145038167938932,32.961832061068705,pressup
1604240657.9607673,-0.9444580078125,0.040283203125,0.048095703125,5.824427480916031,8.98473282442748,35.02290076335878,pressup
1604240658.0007672,-0.9696044921875,0.109375,0.051513671875,6.435114503816794,-10.526717557251908,32.69465648854962,pressup
1604240658.0407672,-0.8682861328125,0.157958984375,0.041015625,6.8320610687022905,-8.603053435114504,34.80916030534351,pressup
1604240658.0807672,-0.7752685546875,0.15625,0.045654296875,2.3282442748091605,-2.4656488549618323,31.297709923664122,pressup
1604240658.120767,-0.7860107421875,0.116455078125,0.047119140625,1.900763358778626,3.6793893129770994,15.885496183206106,pressup
1604240658.160767,-0.6781005859375,0.150634765625,-0.0001220703125,-0.7022900763358778,2.877862595419847,3.7022900763358777,pressup
1604240658.200767,-0.6683349609375,0.146484375,0.02294921875,-0.007633587786259542,8.106870229007633,-5.67175572519084,pressup
1604240658.240767,-0.6912841796875,0.217529296875,-0.0106201171875,0.5419847328244275,-0.007633587786259542,-16.419847328244273,pressup
1604240658.280767,-0.6756591796875,0.24951171875,0.011962890625,2.5419847328244276,5.083969465648855,-21.458015267175572,pressup
1604240658.320767,-0.8038330078125,0.147705078125,0.031982421875,1.3740458015267176,-4.442748091603053,-20.770992366412212,pressup
1604240658.360767,-0.8509521484375,0.159423828125,0.0185546875,0.8244274809160306,-6.587786259541985,-26.82442748091603,pressup
1604240658.4007668,-0.8128662109375,0.080810546875,0.021484375,-2.633587786259542,1.7709923664122138,-28.0381679389313,pressup
1604240658.4407668,-0.9256591796875,0.116455078125,0.0439453125,-2.213740458015267,1.7251908396946565,-31.435114503816795,pressup
1604240658.4807668,-0.9844970703125,0.007568359375,0.026611328125,-3.099236641221374,-8.48091603053435,-28.72519083969466,pressup
1604240658.5207667,-1.0098876953125,0.06201171875,0.068359375,-0.10687022900763359,1.0534351145038168,-29.328244274809162,pressup
1604240658.5607667,-1.0992431640625,-0.0345458984375,0.13623046875,-1.7633587786259541,-18.52671755725191,-24.03053435114504,pressup
1604240658.6007667,-1.0262451171875,-0.0513916015625,0.08251953125,-0.9389312977099237,-0.1450381679389313,-27.977099236641223,pressup
1604240658.6407666,-1.0655517578125,-0.0740966796875,0.043212890625,-2.114503816793893,-3.7099236641221376,-23.801526717557252,pressup
1604240658.6807666,-0.9959716796875,-0.1058349609375,0.0595703125,-2.7786259541984735,-2.8396946564885495,-23.47328244274809,pressup
1604240658.7207665,-1.0496826171875,-0.0672607421875,0.082763671875,0.19083969465648856,2.1603053435114505,-17.564885496183205,pressup
1604240658.7607665,-1.0911865234375,-0.1431884765625,0.083984375,2.122137404580153,-7.603053435114504,-15.84732824427481,pressup
1604240658.8007665,-1.0504150390625,-0.0543212890625,0.07861328125,0.9007633587786259,-4.305343511450381,-11.473282442748092,pressup
1604240658.8407664,-1.1568603515625,-0.1068115234375,0.090576171875,2.6106870229007635,-5.8320610687022905,-2.5801526717557253,pressup
1604240658.8807664,-1.1346435546875,-0.1043701171875,0.09423828125,0.022900763358778626,-1.1068702290076335,3.068702290076336,pressup
1604240658.9207664,-1.1990966796875,-0.1304931640625,0.05224609375,0.40458015267175573,-3.2748091603053435,9.13740458015267,pressup
1604240658.9607663,-1.1715087890625,-0.1461181640625,0.07373046875,1.0229007633587786,-0.549618320610687,13.114503816793894,pressup
1604240659.0007663,-1.1185302734375,-0.1307373046875,0.0732421875,2.0076335877862594,-0.32061068702290074,18.366412213740457,pressup
1604240659.0407662,-1.1038818359375,-0.1256103515625,0.06640625,2.030534351145038,-1.3893129770992367,21.091603053435115,pressup
1604240659.0807662,-0.9854736328125,-0.1029052734375,0.08349609375,3.9618320610687023,3.3282442748091605,23.114503816793892,pressup
1604240659.1207662,-1.0382080078125,-0.0535888671875,0.0693359375,1.2213740458015268,2.0763358778625953,29.68702290076336,pressup
1604240659.1607661,-0.9625244140625,-0.0770263671875,0.0849609375,3.8702290076335877,-0.13740458015267176,27.793893129770993,pressup
1604240659.200766,-0.9818115234375,0.016357421875,0.066162109375,0.9541984732824428,2.6412213740458017,32.229007633587784,pressup
1604240659.240766,-0.9327392578125,-0.0240478515625,0.066162109375,4.480916030534351,-5.145038167938932,31.83969465648855,pressup
1604240659.280766,-0.9537353515625,0.118896484375,0.051025390625,5.534351145038168,3.2442748091603053,32.30534351145038,pressup
1604240659.320766,-0.8934326171875,0.066650390625,0.0322265625,4.564885496183206,-12.740458015267176,30.16030534351145,pressup
1604240659.360766,-0.8294677734375,0.16064453125,0.045654296875,7.297709923664122,2.0,27.450381679389313,pressup
1604240659.400766,-0.7657470703125,0.141845703125,0.016357421875,4.351145038167939,-3.3587786259541983,22.572519083969464,pressup
1604240659.4407659,-0.7288818359375,0.16943359375,0.042236328125,3.763358778625954,7.541984732824427,15.007633587786259,pressup
1604240659.4807658,-0.7991943359375,0.148193359375,0.06298828125,0.32061068702290074,3.687022900763359,6.885496183206107,pressup
1604240659.5207658,-0.7440185546875,0.162109375,0.032958984375,-1.1755725190839694,3.4122137404580153,-4.3893129770992365,pressup
1604240659.5607657,-0.7086181640625,0.2353515625,0.0166015625,-0.8702290076335878,5.8320610687022905,-12.229007633587786,pressup
1604240659.6007657,-0.7156982421875,0.201171875,-0.0084228515625,-1.1221374045801527,3.5801526717557253,-13.007633587786259,pressup
1604240659.6407657,-0.8609619140625,0.1630859375,0.014892578125,-1.0916030534351144,0.4732824427480916,-16.27480916030534,pressup
1604240659.6807656,-0.8223876953125,0.14404296875,0.053955078125,-1.6793893129770991,-2.732824427480916,-22.83969465648855,pressup
1604240659.7207656,-0.8638916015625,0.083251953125,-0.0345458984375,-3.5877862595419847,-5.580152671755725,-26.236641221374047,pressup
1604240659.7607656,-0.8697509765625,0.133544921875,0.035400390625,-0.916030534351145,5.6183206106870225,-29.977099236641223,pressup
1604240659.8007655,-0.9202880859375,0.054931640625,0.025634765625,-0.7251908396946565,-8.236641221374045,-28.564885496183205,pressup
1604240659.8407655,-0.9342041015625,0.03857421875,0.0634765625,-1.381679389312977,0.007633587786259542,-30.702290076335878,pressup
1604240659.8807654,-1.0203857421875,0.001953125,0.07080078125,-1.4198473282442747,-7.801526717557252,-28.595419847328245,pressup
1604240659.9207654,-0.9478759765625,-0.0753173828125,0.052978515625,-0.21374045801526717,-12.229007633587786,-25.702290076335878,pressup
1604240659.9607654,-0.9940185546875,-0.0350341796875,0.04931640625,0.5725190839694656,-8.351145038167939,-27.84732824427481,pressup
1604240660.0007653,-1.0020751953125,-0.0902099609375,0.081787109375,3.1297709923664123,-6.717557251908397,-24.045801526717558,pressup
1604240660.0407653,-1.0706787109375,-0.1187744140625,0.0791015625,0.022900763358778626,-5.8320610687022905,-23.053435114503817,pressup
1604240660.0807652,-1.0838623046875,-0.0848388671875,0.082763671875,-0.29770992366412213,-9.587786259541986,-17.435114503816795,pressup
1604240660.1207652,-0.9769287109375,-0.1007080078125,0.06591796875,-1.1068702290076335,-2.2213740458015265,-12.50381679389313,pressup
1604240660.1607652,-1.1534423828125,-0.1339111328125,0.06689453125,-1.0916030534351144,-1.8244274809160306,-7.320610687022901,pressup
1604240660.2007651,-1.1405029296875,-0.1263427734375,0.0634765625,-0.2748091603053435,-1.015267175572519,-3.7251908396946565,pressup
1604240660.240765,-1.1627197265625,-0.1317138671875,0.08349609375,-0.9389312977099237,5.305343511450381,2.6030534351145036,pressup
1604240660.280765,-1.1729736328125,-0.1600341796875,0.105712890625,0.21374045801526717,3.50381679389313,8.885496183206106,pressup
1604240660.320765,-1.1136474609375,-0.1270751953125,0.095703125,-0.04580152671755725,1.6793893129770991,13.534351145038167,pressup
1604240660.360765,-1.1102294921875,-0.0863037109375,0.081787109375,1.0458015267175573,2.717557251908397,20.0,pressup
1604240660.400765,-1.0213623046875,-0.1475830078125,0.066650390625,1.450381679389313,-3.3206106870229006,21.763358778625953,pressup
1604240660.440765,-0.9417724609375,-0.0511474609375,0.0654296875,1.3358778625954197,6.870229007633588,23.0381679389313,pressup
1604240660.4807649,-1.0067138671875,-0.0823974609375,0.08203125,2.0381679389312977,3.3893129770992365,24.03053435114504,pressup
1604240660.5207648,-1.0172119140625,-0.0013427734375,0.060302734375,2.7786259541984735,-2.1908396946564888,21.49618320610687,pressup
1604240660.5607648,-0.9053955078125,-0.0264892578125,0.046875,4.916030534351145,-0.8549618320610687,28.480916030534353,pressup
1604240660.6007648,-0.9935302734375,0.00634765625,0.0537109375,2.351145038167939,-3.053435114503817,30.229007633587788,pressup
1604240660.6407647,-0.9449462890625,0.032470703125,0.06005859375,5.7251908396946565,-2.2977099236641223,27.16793893129771,pressup
1604240660.6807647,-0.9969482421875,0.06298828125,0.068359375,5.396946564885496,-3.0229007633587788,30.610687022900763,pressup
1604240660.7207646,-0.8953857421875,0.09716796875,0.031982421875,6.801526717557252,-8.84732824427481,26.16793893129771,pressup
1604240660.7607646,-0.8741455078125,0.1650390625,0.05126953125,5.458015267175573,-1.4351145038167938,25.557251908396946,pressup
1604240660.8007646,-0.8311767578125,0.113037109375,0.06103515625,4.854961832061068,-6.427480916030534,24.328244274809162,pressup
1604240660.8407645,-0.7747802734375,0.154296875,0.060791015625,3.954198473282443,-3.549618320610687,12.572519083969466,pressup
1604240660.8807645,-0.7425537109375,0.138427734375,0.021728515625,3.877862595419847,2.4122137404580153,5.0,pressup
1604240660.9207644,-0.7032470703125,0.14892578125,0.021728515625,1.0076335877862594,1.8931297709923665,-6.870229007633588,pressup
1604240660.9607644,-0.7142333984375,0.220703125,0.022216796875,-1.2061068702290076,2.6412213740458017,-14.083969465648854,pressup
1604240661.0007644,-0.6856689453125,0.249267578125,-0.0267333984375,-1.9389312977099236,2.6412213740458017,-15.786259541984732,pressup
1604240661.0407643,-0.8690185546875,0.151611328125,0.054443359375,1.3511450381679388,1.4885496183206106,-15.381679389312977,pressup
1604240661.0807643,-0.8636474609375,0.173828125,0.0283203125,-4.816793893129771,-4.297709923664122,-21.564885496183205,pressup
1604240661.1207643,-0.8516845703125,0.096435546875,-0.0023193359375,-1.7709923664122138,-3.3053435114503817,-26.389312977099237,pressup
1604240661.1607642,-0.8895263671875,0.084716796875,0.075927734375,-1.2290076335877862,3.2519083969465647,-28.03053435114504,pressup
1604240661.2007642,-0.9700927734375,0.049560546875,0.043701171875,-2.7251908396946565,-14.106870229007633,-25.755725190839694,pressup
1604240661.2407641,-0.8565673828125,0.0498046875,0.051513671875,-2.3969465648854964,2.9389312977099236,-28.80916030534351,pressup
1604240661.280764,-0.9744873046875,-0.0809326171875,0.191162109375,-2.984732824427481,0.0,-25.290076335877863,pressup
1604240661.320764,-1.0489501953125,-0.0792236328125,0.095458984375,-2.9160305343511452,-2.7786259541984735,-30.82442748091603,pressup
1604240661.360764,-1.0599365234375,-0.0120849609375,0.1201171875,-0.13740458015267176,-3.2519083969465647,-25.52671755725191,pressup
1604240661.400764,-1.0704345703125,-0.0638427734375,0.07421875,-2.053435114503817,-6.755725190839694,-18.938931297709924,pressup
1604240661.440764,-1.0782470703125,-0.0904541015625,0.078125,-2.633587786259542,-8.442748091603054,-15.282442748091603,pressup
1604240661.480764,-0.9830322265625,-0.1209716796875,0.0322265625,-2.801526717557252,0.8091603053435115,-12.251908396946565,pressup
1604240661.5207639,-1.1070556640625,-0.1478271484375,0.122802734375,-0.6412213740458015,0.366412213740458,-11.259541984732824,pressup
1604240661.5607638,-1.0916748046875,-0.0870361328125,0.08251953125,-1.0076335877862594,2.7480916030534353,-5.083969465648855,pressup
1604240661.6007638,-1.1617431640625,-0.1497802734375,0.12451171875,1.7786259541984732,1.7328244274809161,0.6641221374045801,pressup
1604240661.6407638,-1.1549072265625,-0.1082763671875,0.103271484375,-0.16030534351145037,1.9465648854961832,6.305343511450381,pressup
1604240661.6807637,-1.1134033203125,-0.1419677734375,0.10400390625,0.8854961832061069,-0.40458015267175573,11.290076335877863,pressup
1604240661.7207637,-1.0802001953125,-0.1302490234375,0.0771484375,0.6412213740458015,-2.2748091603053435,15.786259541984732,pressup
1604240661.7607636,-1.0172119140625,-0.1038818359375,0.066650390625,1.6641221374045803,2.572519083969466,17.419847328244273,pressup
1604240661.8007636,-1.0220947265625,-0.0992431640625,0.081298828125,3.4122137404580153,3.450381679389313,21.083969465648856,pressup
1604240661.8407636,-1.0389404296875,-0.0465087890625,0.082763671875,3.572519083969466,-1.3740458015267176,21.022900763358777,pressup
1604240661.8807635,-0.9593505859375,-0.0555419921875,0.080810546875,6.625954198473282,1.8625954198473282,23.450381679389313,pressup
1604240661.9207635,-1.0264892578125,0.01123046875,0.09130859375,2.015267175572519,-0.4961832061068702,28.404580152671755,pressup
1604240661.9607635,-0.9520263671875,-0.0047607421875,0.060791015625,7.091603053435114,-0.8015267175572519,26.9618320610687,pressup
1604240662.0007634,-0.9747314453125,0.036865234375,0.0673828125,5.488549618320611,-1.7938931297709924,29.702290076335878,pressup
1604240662.0407634,-0.9122314453125,0.060302734375,0.053466796875,6.603053435114504,-5.442748091603053,29.221374045801525,pressup
1604240662.0807633,-0.9517822265625,0.10986328125,0.046875,7.633587786259542,0.2824427480916031,29.419847328244273,pressup
1604240662.1207633,-0.8455810546875,0.137451171875,0.03857421875,4.1603053435114505,-9.236641221374045,22.66412213740458,pressup
1604240662.1607633,-0.8094482421875,0.14404296875,0.068603515625,4.564885496183206,11.778625954198473,21.00763358778626,pressup
1604240662.2007632,-0.8870849609375,0.152099609375,0.01953125,1.8931297709923665,-4.458015267175573,18.3206106870229,pressup
1604240662.2407632,-0.7083740234375,0.078125,0.021728515625,1.7328244274809161,3.83206106870229,6.061068702290076,pressup
1604240662.2807631,-0.7369384765625,0.163330078125,0.028564453125,1.8549618320610688,1.1450381679389312,-4.732824427480916,pressup
1604240662.320763,-0.6597900390625,0.23046875,-0.0455322265625,0.4732824427480916,-0.061068702290076333,-11.305343511450381,pressup
1604240662.360763,-0.6571044921875,0.246337890625,-0.0028076171875,0.24427480916030533,5.67175572519084,-15.320610687022901,pressup
1604240662.400763,-0.8651123046875,0.20263671875,0.060302734375,0.3435114503816794,-0.40458015267175573,-13.427480916030534,pressup
1604240662.440763,-0.8873291015625,0.17138671875,0.017578125,-1.213740458015267,-9.312977099236642,-17.99236641221374,pressup
1604240662.480763,-0.8909912109375,0.108642578125,0.02978515625,-2.3587786259541983,-0.3511450381679389,-24.793893129770993,pressup
1604240662.520763,-0.8892822265625,0.076904296875,0.017822265625,-1.8625954198473282,-6.267175572519084,-25.82442748091603,pressup
1604240662.560763,-0.9163818359375,0.06005859375,0.0517578125,-0.5038167938931297,-2.4656488549618323,-25.18320610687023,pressup
1604240662.6007628,-0.9862060546875,-0.0460205078125,0.0693359375,-2.1526717557251906,-10.595419847328245,-26.022900763358777,pressup
1604240662.6407628,-0.9849853515625,0.0224609375,0.05810546875,-2.8625954198473282,-1.7938931297709924,-30.022900763358777,pressup
1604240662.6807628,-0.9432373046875,-0.0101318359375,0.06103515625,-2.1755725190839694,-3.83206106870229,-25.81679389312977,pressup
1604240662.7207627,-1.0733642578125,-0.0416259765625,0.066162109375,-2.5267175572519083,0.1297709923664122,-22.61832061068702,pressup
1604240662.7607627,-0.9998779296875,-0.0802001953125,0.086669921875,-3.282442748091603,-3.4732824427480917,-22.137404580152673,pressup
1604240662.8007627,-1.0281982421875,-0.0718994140625,0.115234375,-2.030534351145038,-0.7022900763358778,-20.47328244274809,pressup
1604240662.8407626,-1.1092529296875,-0.0885009765625,0.1259765625,0.2748091603053435,-0.030534351145038167,-14.198473282442748,pressup
1604240662.8807626,-1.0777587890625,-0.0555419921875,0.10498046875,1.381679389312977,-13.786259541984732,-10.549618320610687,pressup
1604240662.9207625,-1.0389404296875,-0.1109619140625,0.06591796875,-1.4885496183206106,-2.0,-3.3435114503816794,pressup
1604240662.9607625,-1.0848388671875,-0.1214599609375,0.092529296875,-0.35877862595419846,-3.1755725190839694,-1.0687022900763359,pressup
1604240663.0007625,-1.1014404296875,-0.1195068359375,0.1044921875,-0.16030534351145037,2.6030534351145036,1.1068702290076335,pressup
1604240663.0407624,-1.0897216796875,-0.0955810546875,0.0927734375,1.4961832061068703,2.427480916030534,5.076335877862595,pressup
1604240663.0807624,-1.1109619140625,-0.1365966796875,0.150390625,3.4198473282442747,5.984732824427481,12.259541984732824,pressup
1604240663.1207623,-1.1490478515625,-0.0833740234375,0.12158203125,2.9923664122137406,-2.8931297709923665,16.17557251908397,pressup
1604240663.1607623,-1.0198974609375,-0.0933837890625,0.12255859375,3.1068702290076335,-1.1603053435114503,18.946564885496183,pressup
1604240663.2007623,-1.0465087890625,-0.0450439453125,0.09228515625,2.427480916030534,-0.9312977099236641,26.236641221374047,pressup
1604240663.2407622,-0.9542236328125,-0.0701904296875,0.097900390625,4.221374045801527,1.618320610687023,25.770992366412212,pressup
1604240663.2807622,-0.9705810546875,-0.0172119140625,0.0673828125,3.2595419847328246,3.9770992366412212,28.03053435114504,pressup
1604240663.3207622,-0.9354248046875,-0.0311279296875,0.08349609375,3.4656488549618323,4.809160305343512,26.244274809160306,pressup
1604240663.3607621,-0.9368896484375,0.0556640625,0.04833984375,3.381679389312977,4.33587786259542,27.740458015267176,pressup
1604240663.400762,-0.9039306640625,0.058349609375,0.04541015625,3.7404580152671754,5.702290076335878,27.66412213740458,pressup
1604240663.440762,-0.8834228515625,0.107421875,0.033203125,2.877862595419847,4.603053435114504,25.099236641221374,pressup
1604240663.480762,-0.8599853515625,0.12890625,0.03857421875,3.732824427480916,2.885496183206107,22.755725190839694,pressup
1604240663.520762,-0.8126220703125,0.11279296875,0.051025390625,3.5572519083969465,1.1908396946564885,19.450381679389313,pressup
1604240663.560762,-0.7735595703125,0.1064453125,0.048828125,1.7938931297709924,1.6030534351145038,10.022900763358779,pressup
1604240663.600762,-0.7738037109375,0.14404296875,-0.0084228515625,0.8091603053435115,0.648854961832061,1.7557251908396947,pressup
1604240663.6407619,-0.7396240234375,0.1962890625,0.0146484375,0.8396946564885496,1.9236641221374047,-10.687022900763358,pressup
1604240663.6807618,-0.6925048828125,0.207275390625,-0.0228271484375,-0.6259541984732825,-1.3511450381679388,-15.335877862595419,pressup
1604240663.7207618,-0.7227783203125,0.1416015625,0.029296875,-1.9389312977099236,6.969465648854962,-19.068702290076335,pressup
1604240663.7607617,-0.9188232421875,0.1591796875,0.02392578125,-4.175572519083969,-2.7557251908396947,-22.18320610687023,pressup
1604240663.8007617,-0.8323974609375,0.104248046875,0.01953125,-4.190839694656488,-4.641221374045801,-26.221374045801525,pressup
1604240663.8407617,-0.8348388671875,0.077392578125,-0.0003662109375,-5.8396946564885495,-0.5954198473282443,-27.46564885496183,pressup
1604240663.8807616,-0.9615478515625,0.00341796875,0.0517578125,-2.045801526717557,-2.9389312977099236,-26.458015267175572,pressup
1604240663.9207616,-0.9798583984375,-0.0218505859375,0.03125,-0.732824427480916,-6.183206106870229,-29.801526717557252,pressup
1604240663.9607615,-0.9976806640625,-0.0091552734375,0.07568359375,1.3358778625954197,-15.725190839694656,-27.564885496183205,pressup
1604240664.0007615,-1.0408935546875,-0.0416259765625,0.0595703125,0.40458015267175573,-9.954198473282442,-23.099236641221374,pressup
1604240664.0407615,-1.0059814453125,-0.0723876953125,0.07275390625,-2.6259541984732824,-3.7709923664122136,-24.61832061068702,pressup
1604240664.0807614,-1.0321044921875,-0.1033935546875,0.072998046875,-4.870229007633588,-2.6412213740458017,-19.748091603053435,pressup
1604240664.1207614,-1.0953369140625,-0.1002197265625,0.04833984375,-1.3435114503816794,2.0763358778625953,-16.740458015267176,pressup
1604240664.1607614,-1.1112060546875,-0.1231689453125,0.1083984375,-0.8091603053435115,-3.6717557251908395,-10.007633587786259,pressup
1604240664.2007613,-1.1527099609375,-0.1390380859375,0.100830078125,2.030534351145038,-6.419847328244275,-5.0,pressup
1604240664.2407613,-1.1522216796875,-0.1353759765625,0.115234375,5.00763358778626,-6.030534351145038,4.923664122137405,pressup
1604240664.2807612,-1.1776123046875,-0.1243896484375,0.10009765625,4.282442748091603,-6.221374045801527,8.595419847328245,pressup
1604240664.3207612,-1.1378173828125,-0.1204833984375,0.095947265625,2.2519083969465647,-6.015267175572519,11.770992366412214,pressup
1604240664.3607612,-1.0714111328125,-0.0980224609375,0.08251953125,1.4885496183206106,-0.9923664122137404,15.709923664122137,pressup
1604240664.4007611,-1.0018310546875,-0.0401611328125,0.026611328125,-0.8091603053435115,3.045801526717557,17.480916030534353,pressup
1604240664.440761,-0.9407958984375,-0.1348876953125,0.080810546875,3.4656488549618323,5.435114503816794,22.229007633587788,pressup
1604240664.480761,-1.0633544921875,0.032958984375,0.07958984375,0.7099236641221374,4.587786259541985,23.15267175572519,pressup
1604240664.520761,-0.9361572265625,-0.0914306640625,0.1064453125,2.954198473282443,-0.07633587786259542,23.52671755725191,pressup
1604240664.560761,-1.0401611328125,0.037353515625,0.086181640625,2.2977099236641223,2.1297709923664123,27.549618320610687,pressup
1604240664.600761,-0.9703369140625,-0.0252685546875,0.0908203125,3.2290076335877864,-8.893129770992367,30.519083969465647,pressup
1604240664.640761,-0.9857177734375,0.0615234375,0.069580078125,5.793893129770993,-0.7709923664122137,28.778625954198475,pressup
1604240664.6807609,-0.9105224609375,0.05908203125,0.0224609375,1.2213740458015268,-7.312977099236641,28.51145038167939,pressup
1604240664.7207608,-0.8299560546875,0.11962890625,0.036376953125,3.267175572519084,3.9389312977099236,24.404580152671755,pressup
1604240664.7607608,-0.8138427734375,0.146728515625,0.052490234375,5.106870229007634,-8.267175572519085,21.12213740458015,pressup
1604240664.8007607,-0.7247314453125,0.106201171875,0.082763671875,4.343511450381679,2.33587786259542,15.244274809160306,pressup
1604240664.8407607,-0.7786865234375,0.164794921875,0.0849609375,1.0534351145038168,-4.0534351145038165,2.183206106870229,pressup
1604240664.8807607,-0.6536865234375,0.184814453125,0.041015625,-2.0076335877862594,4.152671755725191,-6.206106870229007,pressup
1604240664.9207606,-0.7371826171875,0.21484375,0.037109375,-2.66412213740458,-0.4732824427480916,-11.01526717557252,pressup
1604240664.9607606,-0.7078857421875,0.150390625,0.026611328125,-1.2671755725190839,-4.076335877862595,-17.27480916030534,pressup
1604240665.0007606,-0.8436279296875,0.140625,0.011474609375,-1.3740458015267176,7.312977099236641,-18.48854961832061,pressup
1604240665.0407605,-0.9107666015625,0.114013671875,0.09423828125,-1.618320610687023,-0.4732824427480916,-25.519083969465647,pressup
1604240665.0807605,-0.9608154296875,0.0634765625,0.06005859375,-1.717557251908397,-1.465648854961832,-26.251908396946565,pressup
1604240665.1207604,-0.8978271484375,0.080810546875,0.06884765625,-2.0916030534351147,-2.0839694656488548,-28.328244274809162,pressup
1604240665.1607604,-0.9259033203125,-0.0213623046875,0.058837890625,-0.4961832061068702,1.1145038167938932,-25.458015267175572,pressup
1604240665.2007604,-1.0252685546875,-0.0228271484375,0.132080078125,1.1374045801526718,-13.34351145038168,-25.50381679389313,pressup
1604240665.2407603,-0.9830322265625,-0.0028076171875,0.091064453125,2.122137404580153,-4.6106870229007635,-24.64885496183206,pressup
1604240665.2807603,-1.0260009765625,-0.0672607421875,0.10302734375,0.6793893129770993,-2.6946564885496183,-21.16030534351145,pressup
1604240665.3207603,-1.0120849609375,-0.0723876953125,0.08154296875,-3.3893129770992365,-10.267175572519085,-21.091603053435115,pressup
1604240665.3607602,-0.9449462890625,-0.0623779296875,0.072265625,-2.3969465648854964,7.259541984732825,-19.35114503816794,pressup
1604240665.4007602,-1.0787353515625,-0.0906982421875,0.089599609375,-0.24427480916030533,3.7938931297709924,-12.664122137404581,pressup
1604240665.4407601,-1.1566162109375,-0.1107177734375,0.093505859375,1.366412213740458,-4.122137404580153,-11.50381679389313,pressup
1604240665.48076,-1.1007080078125,-0.1224365234375,0.08251953125,0.8015267175572519,-2.954198473282443,-5.267175572519084,pressup
1604240665.52076,-1.1287841796875,-0.1148681640625,0.048583984375,0.5572519083969466,-3.030534351145038,2.2442748091603053,pressup
1604240665.56076,-1.1060791015625,-0.1021728515625,0.067626953125,1.6030534351145038,-1.916030534351145,7.67175572519084,pressup
1604240665.60076,-1.1361083984375,-0.1265869140625,0.05224609375,2.49618320610687,1.6259541984732824,10.045801526717558,pressup
1604240665.64076,-1.1363525390625,-0.0894775390625,0.08154296875,3.0229007633587788,4.519083969465649,13.908396946564885,pressup
1604240665.68076,-1.0870361328125,-0.1048583984375,0.10205078125,3.404580152671756,1.8778625954198473,19.984732824427482,pressup
1604240665.7207599,-1.0516357421875,-0.0462646484375,0.097900390625,3.068702290076336,0.20610687022900764,25.19083969465649,pressup
1604240665.7607598,-0.9652099609375,-0.0853271484375,0.0771484375,2.0839694656488548,-3.50381679389313,26.84732824427481,pressup
1604240665.8007598,-0.9512939453125,0.026123046875,0.060791015625,1.984732824427481,8.664122137404581,27.66412213740458,pressup
1604240665.8407598,-0.9930419921875,-0.0836181640625,0.05322265625,0.21374045801526717,-2.6259541984732824,29.717557251908396,pressup
1604240665.8807597,-0.9193115234375,-0.0108642578125,0.088134765625,4.717557251908397,7.427480916030534,27.114503816793892,pressup
1604240665.9207597,-0.9888916015625,0.037841796875,0.03515625,4.984732824427481,-7.312977099236641,30.763358778625953,pressup
1604240665.9607596,-0.8748779296875,0.064208984375,0.064453125,5.396946564885496,3.015267175572519,27.64885496183206,pressup
1604240666.0007596,-0.9075927734375,0.1201171875,0.0263671875,3.1908396946564888,-2.801526717557252,25.48854961832061,pressup
1604240666.0407596,-0.7408447265625,0.125732421875,0.015869140625,2.4885496183206106,5.519083969465649,18.69465648854962,pressup
1604240666.0807595,-0.7740478515625,0.192138671875,0.0244140625,2.2595419847328246,2.9618320610687023,12.702290076335878,pressup
1604240666.1207595,-0.7186279296875,0.129150390625,0.010009765625,0.7633587786259542,2.9083969465648853,4.442748091603053,pressup
1604240666.1607594,-0.7159423828125,0.19482421875,0.015625,-0.22137404580152673,0.022900763358778626,-11.13740458015267,pressup
1604240666.2007594,-0.7142333984375,0.215087890625,0.005126953125,-1.2213740458015268,3.5877862595419847,-14.877862595419847,pressup
1604240666.2407594,-0.6778564453125,0.227294921875,0.01025390625,1.381679389312977,-5.984732824427481,-19.641221374045802,pressup
1604240666.2807593,-0.7745361328125,0.1787109375,0.0048828125,-0.6183206106870229,-3.5343511450381677,-18.954198473282442,pressup
1604240666.3207593,-0.9366455078125,0.095703125,0.05908203125,-1.9618320610687023,-2.4580152671755724,-25.083969465648856,pressup
1604240666.3607593,-0.8927001953125,0.103759765625,0.033203125,-3.8702290076335877,-8.19083969465649,-31.106870229007633,pressup
1604240666.4007592,-0.8690185546875,-0.0308837890625,-0.0269775390625,-4.259541984732825,1.6946564885496183,-27.740458015267176,pressup
1604240666.4407592,-1.0157470703125,-0.0296630859375,0.088623046875,-3.3053435114503817,5.4961832061068705,-29.358778625954198,pressup
1604240666.4807591,-1.1199951171875,-0.0528564453125,0.086669921875,-1.984732824427481,-16.80916030534351,-28.770992366412212,pressup
1604240666.520759,-1.0450439453125,-0.0587158203125,0.0947265625,-1.0534351145038168,-3.8473282442748094,-27.99236641221374,pressup
1604240666.560759,-1.0474853515625,-0.1126708984375,0.0732421875,-0.04580152671755725,-6.748091603053435,-23.603053435114504,pressup
1604240666.600759,-1.0286865234375,-0.1373291015625,0.063720703125,0.549618320610687,-14.694656488549619,-19.12213740458015,pressup
1604240666.640759,-1.0181884765625,-0.0987548828125,0.095458984375,0.7480916030534351,-7.175572519083969,-17.14503816793893,pressup
1604240666.680759,-1.0311279296875,-0.0899658203125,0.079345703125,1.099236641221374,-5.229007633587786,-16.977099236641223,pressup
1604240666.720759,-1.0181884765625,-0.0777587890625,0.0888671875,0.08396946564885496,-1.4580152671755726,-10.229007633587786,pressup
1604240666.7607589,-1.1226806640625,-0.0753173828125,0.083251953125,0.33587786259541985,-0.366412213740458,-1.9541984732824427,pressup
1604240666.8007588,-1.1925048828125,-0.0950927734375,0.10595703125,1.099236641221374,-1.099236641221374,3.450381679389313,pressup
1604240666.8407588,-1.1507568359375,-0.1207275390625,0.1083984375,0.12213740458015267,-0.5343511450381679,7.603053435114504,pressup
1604240666.8807588,-1.1275634765625,-0.1224365234375,0.129638671875,1.4961832061068703,4.580152671755725,13.267175572519085,pressup
1604240666.9207587,-1.0970458984375,-0.1077880859375,0.097900390625,3.068702290076336,-0.2900763358778626,18.458015267175572,pressup
1604240666.9607587,-1.0711669921875,-0.1290283203125,0.11767578125,3.801526717557252,-1.3511450381679388,21.549618320610687,pressup
1604240667.0007586,-0.9913330078125,-0.0599365234375,0.08544921875,5.1679389312977095,0.916030534351145,24.64885496183206,pressup
1604240667.0407586,-1.0426025390625,-0.0765380859375,0.08642578125,4.290076335877862,-1.4427480916030535,27.625954198473284,pressup
1604240667.0807586,-0.9376220703125,-0.0714111328125,0.0908203125,1.6106870229007633,4.00763358778626,25.916030534351144,pressup
1604240667.1207585,-0.9635009765625,0.006591796875,0.081298828125,2.7786259541984735,-1.0229007633587786,30.458015267175572,pressup
1604240667.1607585,-0.9017333984375,0.01171875,0.048095703125,4.32824427480916,2.2595419847328246,31.81679389312977,pressup
1604240667.2007585,-1.0186767578125,0.064453125,0.0625,3.1297709923664123,-1.183206106870229,29.541984732824428,pressup
1604240667.2407584,-0.8753662109375,0.03857421875,0.062744140625,5.251908396946565,1.900763358778626,29.80916030534351,pressup
1604240667.2807584,-0.9808349609375,0.17578125,0.092529296875,5.1603053435114505,-5.748091603053435,31.740458015267176,pressup
1604240667.3207583,-0.7738037109375,0.093994140625,0.05029296875,6.320610687022901,-6.419847328244275,28.374045801526716,pressup
1604240667.3607583,-0.7738037109375,0.197265625,0.060791015625,5.259541984732825,-0.16030534351145037,19.580152671755727,pressup
1604240667.4007583,-0.6290283203125,0.177490234375,0.0205078125,2.7786259541984735,4.221374045801527,6.99236641221374,pressup
1604240667.4407582,-0.6802978515625,0.21240234375,0.06787109375,-3.50381679389313,13.916030534351146,-3.5877862595419847,pressup
1604240667.4807582,-0.6912841796875,0.20068359375,0.031982421875,-3.3206106870229006,3.0839694656488548,-15.198473282442748,pressup
1604240667.5207582,-0.6697998046875,0.21337890625,-0.0008544921875,-1.6488549618320612,0.5038167938931297,-18.27480916030534,pressup
1604240667.560758,-0.7637939453125,0.15771484375,0.00830078125,-1.9770992366412214,5.33587786259542,-20.137404580152673,pressup
1604240667.600758,-0.8931884765625,0.128662109375,0.063232421875,-0.15267175572519084,-5.206106870229007,-24.763358778625953,pressup
1604240667.640758,-0.8760986328125,0.066650390625,0.03955078125,-0.1984732824427481,-5.8396946564885495,-28.022900763358777,pressup
1604240667.680758,-0.8878173828125,0.05224609375,0.041748046875,0.9465648854961832,-6.404580152671755,-30.564885496183205,pressup
1604240667.720758,-0.9390869140625,0.01513671875,0.0556640625,-0.4732824427480916,-4.152671755725191,-30.16030534351145,pressup
1604240667.760758,-1.0562744140625,0.032958984375,0.101806640625,2.648854961832061,-3.5267175572519083,-28.259541984732824,pressup
1604240667.800758,-1.0526123046875,-0.0435791015625,0.07666015625,1.2366412213740459,-13.557251908396946,-26.610687022900763,pressup
1604240667.8407578,-1.0550537109375,-0.0885009765625,0.080078125,1.1526717557251909,-15.312977099236642,-24.3206106870229,pressup
1604240667.8807578,-0.9520263671875,-0.0477294921875,0.037109375,-1.9312977099236641,-4.656488549618321,-22.519083969465647,pressup
1604240667.9207578,-1.0374755859375,-0.0760498046875,0.088134765625,0.7404580152671756,2.2290076335877864,-19.045801526717558,pressup
1604240667.9607577,-1.0784912109375,-0.0863037109375,0.104736328125,-1.5725190839694656,-9.732824427480915,-18.49618320610687,pressup
1604240668.0007577,-0.9840087890625,-0.0462646484375,0.04931640625,-3.2061068702290076,8.099236641221374,-16.603053435114504,pressup
1604240668.0407577,-1.0511474609375,-0.1051025390625,0.1064453125,-4.854961832061068,9.770992366412214,-12.49618320610687,pressup
1604240668.0807576,-1.1190185546875,-0.0582275390625,0.123291015625,-2.83206106870229,5.2748091603053435,-3.595419847328244,pressup
1604240668.1207576,-1.1937255859375,-0.1387939453125,0.104248046875,-0.9236641221374046,0.4732824427480916,2.053435114503817,pressup
1604240668.1607575,-1.1976318359375,-0.1343994140625,0.10400390625,1.2900763358778626,1.748091603053435,9.129770992366412,pressup
1604240668.2007575,-1.1624755859375,-0.1473388671875,0.108642578125,2.4885496183206106,-3.0610687022900764,13.763358778625955,pressup
1604240668.2407575,-1.1478271484375,-0.1002197265625,0.10791015625,4.893129770992366,-6.175572519083969,18.557251908396946,pressup
1604240668.2807574,-1.0211181640625,-0.1097412109375,0.122314453125,7.351145038167939,-7.030534351145038,20.282442748091604,pressup
1604240668.3207574,-0.9952392578125,-0.0552978515625,0.110595703125,8.061068702290076,-6.190839694656488,23.38167938931298,pressup
1604240668.3607574,-0.9417724609375,-0.0252685546875,0.088134765625,5.709923664122138,-3.450381679389313,25.83206106870229,pressup
1604240668.4007573,-0.9373779296875,0.0087890625,0.0712890625,3.2061068702290076,1.8778625954198473,25.82442748091603,pressup
1604240668.4407573,-0.8809814453125,0.0244140625,0.069091796875,3.1908396946564888,6.595419847328245,25.702290076335878,pressup
1604240668.4807572,-0.9615478515625,-0.0047607421875,0.04345703125,2.198473282442748,5.358778625954199,25.022900763358777,pressup
1604240668.5207572,-0.9503173828125,0.061279296875,0.06689453125,3.3435114503816794,5.541984732824427,24.717557251908396,pressup
1604240668.5607572,-0.9366455078125,0.09326171875,0.027587890625,0.8625954198473282,-1.1755725190839694,24.213740458015266,pressup
1604240668.6007571,-0.7852783203125,0.0751953125,0.021484375,2.4427480916030535,13.221374045801527,18.50381679389313,pressup
1604240668.640757,-0.9022216796875,0.16845703125,0.01318359375,1.6793893129770991,11.251908396946565,14.557251908396946,pressup
1604240668.680757,-0.7791748046875,0.040283203125,0.02197265625,0.8625954198473282,12.717557251908397,8.13740458015267,pressup
1604240668.720757,-0.8365478515625,0.175537109375,0.053466796875,1.3893129770992367,11.908396946564885,-3.0916030534351147,pressup
1604240668.760757,-0.7315673828125,0.15966796875,0.040771484375,1.6564885496183206,-2.2213740458015265,-5.66412213740458,pressup
1604240668.800757,-0.7940673828125,0.171875,0.026611328125,3.8931297709923665,0.5419847328244275,-7.717557251908397,pressup
1604240668.840757,-0.8026123046875,0.216552734375,0.021240234375,1.3969465648854962,-16.068702290076335,-11.954198473282442,pressup
1604240668.8807569,-0.7589111328125,0.138916015625,-0.0101318359375,-0.549618320610687,-9.145038167938932,-10.587786259541986,pressup
1604240668.9207568,-0.7896728515625,0.08203125,0.011474609375,-1.1450381679389312,-5.580152671755725,-22.53435114503817,pressup
1604240668.9607568,-0.8458251953125,0.07421875,0.010498046875,-0.26717557251908397,-2.2442748091603053,-24.786259541984734,pressup
1604240669.0007567,-0.9114990234375,0.049560546875,0.017333984375,-0.48854961832061067,-4.442748091603053,-27.69465648854962,pressup
1604240669.0407567,-0.9415283203125,0.0,0.06884765625,0.5954198473282443,-6.847328244274809,-27.198473282442748,pressup
1604240669.0807567,-1.0257568359375,-0.0145263671875,0.06884765625,-0.12213740458015267,-7.557251908396947,-26.358778625954198,pressup
1604240669.1207566,-0.9884033203125,-0.0245361328125,0.0751953125,-1.083969465648855,-7.427480916030534,-26.068702290076335,pressup
1604240669.1607566,-1.0345458984375,-0.0325927734375,0.075927734375,-0.4580152671755725,-9.381679389312977,-22.19083969465649,pressup
1604240669.2007565,-1.0042724609375,-0.0982666015625,0.05810546875,-1.4045801526717556,-8.01526717557252,-19.389312977099237,pressup
1604240669.2407565,-1.0589599609375,-0.0794677734375,0.08251953125,0.5190839694656488,-10.870229007633588,-16.702290076335878,pressup
1604240669.2807565,-1.0953369140625,-0.0762939453125,0.08251953125,-0.5038167938931297,-5.465648854961832,-14.80916030534351,pressup
1604240669.3207564,-1.0433349609375,-0.1405029296875,0.123779296875,0.16793893129770993,-10.51908396946565,-9.908396946564885,pressup
1604240669.3607564,-1.0411376953125,-0.1363525390625,0.086181640625,-1.015267175572519,-6.511450381679389,-6.450381679389313,pressup
1604240669.4007564,-1.1048583984375,-0.1009521484375,0.13623046875,0.8473282442748091,1.381679389312977,-2.717557251908397,pressup
1604240669.4407563,-1.1302490234375,-0.0523681640625,0.121826171875,1.3053435114503817,0.3893129770992366,1.5572519083969465,pressup
1604240669.4807563,-1.1077880859375,-0.1129150390625,0.1162109375,-0.061068702290076333,-0.35877862595419846,8.381679389312977,pressup
1604240669.5207562,-1.1197509765625,-0.1373291015625,0.127685546875,1.4274809160305344,4.679389312977099,12.13740458015267,pressup
1604240669.5607562,-1.0521240234375,-0.0560302734375,0.10400390625,-1.2213740458015268,-0.09923664122137404,15.236641221374045,pressup
1604240669.6007562,-1.0418701171875,-0.0819091796875,0.10888671875,1.0534351145038168,6.877862595419847,19.045801526717558,pressup
1604240669.6407561,-0.9937744140625,-0.0711669921875,0.05126953125,-0.1450381679389313,1.0381679389312977,18.404580152671755,pressup
1604240669.680756,-0.9178466796875,-0.0572509765625,0.0859375,1.9312977099236641,5.648854961832061,18.977099236641223,pressup
1604240669.720756,-0.9644775390625,-0.0294189453125,0.0751953125,2.9389312977099236,0.5725190839694656,21.49618320610687,pressup
1604240669.760756,-0.9281005859375,0.00341796875,0.06689453125,3.8473282442748094,0.6564885496183206,22.6793893129771,pressup
1604240669.800756,-0.9813232421875,0.05712890625,0.088134765625,1.2366412213740459,1.5114503816793894,21.49618320610687,pressup
1604240669.840756,-0.9224853515625,0.0361328125,0.0400390625,0.48854961832061067,-1.083969465648855,24.35114503816794,pressup
1604240669.880756,-0.9346923828125,0.049072265625,0.073486328125,0.7633587786259542,10.122137404580153,25.297709923664122,pressup
1604240669.9207559,-0.9722900390625,0.10595703125,0.034912109375,-0.06870229007633588,-0.4351145038167939,20.801526717557252,pressup
1604240669.9607558,-0.8406982421875,0.068359375,0.046875,0.3893129770992366,13.50381679389313,20.603053435114504,pressup
1604240670.0007558,-0.9219970703125,0.123046875,0.056640625,-0.8625954198473282,10.755725190839694,14.946564885496183,pressup
1604240670.0407557,-0.7523193359375,0.0927734375,0.0556640625,0.8244274809160306,3.9618320610687023,9.282442748091603,pressup
1604240670.0807557,-0.7904052734375,0.13720703125,0.0478515625,0.1450381679389313,10.412213740458014,2.267175572519084,pressup
1604240670.1207557,-0.7491455078125,0.1572265625,0.0380859375,-0.9465648854961832,0.4351145038167939,-5.3816793893129775,pressup
1604240670.1607556,-0.7081298828125,0.202392578125,0.036376953125,-0.0916030534351145,6.908396946564886,-12.198473282442748,pressup
1604240670.2007556,-0.7943115234375,0.13525390625,-0.0145263671875,-1.7251908396946565,-5.366412213740458,-12.816793893129772,pressup
1604240670.2407556,-0.8236083984375,0.135986328125,0.019775390625,-1.9083969465648856,5.358778625954199,-18.091603053435115,pressup
1604240670.2807555,-0.9439697265625,0.08544921875,0.05712890625,1.3740458015267176,-7.152671755725191,-20.900763358778626,pressup
1604240670.3207555,-0.9202880859375,0.06396484375,0.0126953125,1.8931297709923665,-11.98473282442748,-23.33587786259542,pressup
1604240670.3607554,-0.8536376953125,0.044921875,0.00244140625,0.9618320610687023,-7.33587786259542,-24.69465648854962,pressup
1604240670.4007554,-0.9632568359375,0.0126953125,0.033447265625,1.3206106870229009,-4.419847328244275,-23.572519083969464,pressup
1604240670.4407554,-1.0103759765625,-0.0052490234375,0.024169921875,1.16793893129771,-13.236641221374045,-23.641221374045802,pressup
1604240670.4807553,-0.9920654296875,-0.0543212890625,0.070068359375,1.0610687022900764,-4.732824427480916,-25.068702290076335,pressup
1604240670.5207553,-1.0582275390625,-0.0716552734375,0.034912109375,1.3206106870229009,-11.083969465648854,-22.30534351145038,pressup
1604240670.5607553,-0.9766845703125,-0.0499267578125,0.077392578125,0.007633587786259542,-9.946564885496183,-19.763358778625953,pressup
1604240670.6007552,-1.0560302734375,-0.1043701171875,0.068115234375,1.0076335877862594,-9.236641221374045,-16.053435114503817,pressup
1604240670.6407552,-1.0169677734375,-0.0960693359375,0.0849609375,2.3282442748091605,-3.030534351145038,-16.64885496183206,pressup
1604240670.6807551,-1.0982666015625,-0.0819091796875,0.08447265625,0.9236641221374046,-8.641221374045802,-11.282442748091603,pressup
1604240670.720755,-1.0662841796875,-0.0860595703125,0.10791015625,3.9770992366412212,-2.7786259541984735,-6.137404580152672,pressup
1604240670.760755,-1.1820068359375,-0.0880126953125,0.129150390625,3.7786259541984735,-9.068702290076336,0.5038167938931297,pressup
1604240670.800755,-1.1341552734375,-0.1051025390625,0.107177734375,5.534351145038168,-3.9770992366412212,6.648854961832061,pressup
1604240670.840755,-1.1639404296875,-0.0728759765625,0.09814453125,1.0381679389312977,-3.7404580152671754,12.198473282442748,pressup
1604240670.880755,-1.0804443359375,-0.1019287109375,0.097900390625,4.6183206106870225,-3.213740458015267,17.27480916030534,pressup
1604240670.920755,-1.0736083984375,-0.1112060546875,0.083251953125,2.114503816793893,-0.4580152671755725,21.091603053435115,pressup
1604240670.9607549,-1.0347900390625,-0.0533447265625,0.101806640625,3.1603053435114505,5.358778625954199,21.984732824427482,pressup
1604240671.0007548,-0.9637451171875,-0.0574951171875,0.08544921875,2.6564885496183206,-2.6259541984732824,23.748091603053435,pressup
1604240671.0407548,-0.9718017578125,-0.0748291015625,0.1533203125,6.076335877862595,14.65648854961832,23.358778625954198,pressup
1604240671.0807548,-0.9730224609375,0.02587890625,0.08203125,2.8473282442748094,-6.748091603053435,24.740458015267176,pressup
1604240671.1207547,-0.8824462890625,-0.0611572265625,0.081298828125,5.015267175572519,8.427480916030534,25.81679389312977,pressup
1604240671.1607547,-1.0054931640625,0.081298828125,0.07666015625,1.7633587786259541,-2.5419847328244276,31.16793893129771,pressup
1604240671.2007546,-0.8677978515625,0.02392578125,0.05419921875,1.3053435114503817,4.740458015267175,27.251908396946565,pressup
1604240671.2407546,-1.0067138671875,0.119873046875,0.091796875,4.572519083969466,8.129770992366412,25.938931297709924,pressup
1604240671.2807546,-0.9571533203125,0.1064453125,0.03173828125,1.6412213740458015,-2.6717557251908395,29.641221374045802,pressup
1604240671.3207545,-0.8262939453125,0.130615234375,0.057373046875,1.1984732824427482,4.00763358778626,20.297709923664122,pressup
1604240671.3607545,-0.7479248046875,0.169189453125,0.05224609375,0.5038167938931297,11.16793893129771,14.923664122137405,pressup
1604240671.4007545,-0.7315673828125,0.109375,0.05615234375,-0.3435114503816794,8.82442748091603,7.114503816793893,pressup
1604240671.4407544,-0.7144775390625,0.244384765625,0.030029296875,-2.3435114503816794,6.633587786259542,-5.6106870229007635,pressup
1604240671.4807544,-0.6417236328125,0.1767578125,0.02001953125,-4.190839694656488,4.358778625954199,-14.778625954198473,pressup
1604240671.5207543,-0.7235107421875,0.22998046875,0.0146484375,-2.0381679389312977,8.17557251908397,-20.068702290076335,pressup
1604240671.5607543,-0.7379150390625,0.206298828125,0.029052734375,0.06870229007633588,-8.80916030534351,-18.34351145038168,pressup
1604240671.6007543,-0.8646240234375,0.133544921875,0.03515625,1.984732824427481,-5.282442748091603,-22.412213740458014,pressup
1604240671.6407542,-0.8272705078125,0.1474609375,-0.0091552734375,-0.7251908396946565,-14.82442748091603,-28.213740458015266,pressup
1604240671.6807542,-0.8809814453125,0.064453125,0.009033203125,-2.2213740458015265,3.816793893129771,-25.366412213740457,pressup
1604240671.7207541,-1.0216064453125,0.01025390625,0.047119140625,-2.8473282442748094,-6.137404580152672,-28.717557251908396,pressup
1604240671.760754,-1.0328369140625,-0.0521240234375,0.0439453125,-2.4885496183206106,-5.526717557251908,-30.17557251908397,pressup
1604240671.800754,-0.9935302734375,-0.0101318359375,0.049560546875,-2.3435114503816794,-3.595419847328244,-29.564885496183205,pressup
1604240671.840754,-1.0853271484375,-0.0484619140625,0.07861328125,-1.3969465648854962,3.0,-25.221374045801525,pressup
1604240671.880754,-1.0394287109375,-0.1016845703125,0.138916015625,-0.6793893129770993,-6.374045801526718,-22.3206106870229,pressup
1604240671.920754,-1.0828857421875,-0.1060791015625,0.122314453125,0.17557251908396945,-6.106870229007634,-21.916030534351144,pressup
1604240671.960754,-1.0364990234375,-0.0601806640625,0.0849609375,2.50381679389313,-11.65648854961832,-18.572519083969464,pressup
1604240672.0007539,-1.0172119140625,-0.0948486328125,0.091552734375,2.83206106870229,-14.977099236641221,-9.687022900763358,pressup
1604240672.0407538,-1.0411376953125,-0.0953369140625,0.046875,3.450381679389313,-17.610687022900763,-8.244274809160306,pressup
1604240672.0807538,-0.9857177734375,-0.1082763671875,0.032470703125,2.4198473282442747,-9.389312977099237,-7.625954198473282,pressup
1604240672.1207538,-1.0411376953125,-0.0628662109375,0.102294921875,2.0839694656488548,4.9465648854961835,-5.099236641221374,pressup
1604240672.1607537,-1.1470947265625,-0.1331787109375,0.12890625,3.3893129770992365,-1.7633587786259541,2.2519083969465647,pressup
1604240672.2007537,-1.1573486328125,-0.1085205078125,0.127197265625,0.5114503816793893,1.8396946564885497,6.908396946564886,pressup
1604240672.2407537,-1.1466064453125,-0.0994873046875,0.122802734375,1.16793893129771,-4.450381679389313,11.17557251908397,pressup
1604240672.2807536,-1.0098876953125,-0.1219482421875,0.095947265625,2.4732824427480917,0.7786259541984732,13.351145038167939,pressup
1604240672.3207536,-1.0465087890625,-0.0421142578125,0.0859375,3.4122137404580153,-5.648854961832061,21.38167938931298,pressup
1604240672.3607535,-0.9122314453125,-0.0438232421875,0.105224609375,3.648854961832061,-0.1297709923664122,18.236641221374047,pressup
1604240672.4007535,-0.9940185546875,-0.0933837890625,0.08203125,1.6946564885496183,2.0916030534351147,23.15267175572519,pressup
1604240672.4407535,-0.9442138671875,-0.0509033203125,0.127197265625,3.0076335877862594,3.618320610687023,24.49618320610687,pressup
1604240672.4807534,-1.0465087890625,0.001708984375,0.075439453125,4.961832061068702,-7.458015267175573,23.12213740458015,pressup
1604240672.5207534,-0.9190673828125,-0.0294189453125,0.0859375,6.267175572519084,4.893129770992366,24.557251908396946,pressup
1604240672.5607533,-1.0516357421875,-0.0135498046875,0.093994140625,5.33587786259542,-2.3282442748091605,25.541984732824428,pressup
1604240672.6007533,-0.8934326171875,0.02783203125,0.08544921875,4.809160305343512,3.4198473282442747,25.12213740458015,pressup
1604240672.6407533,-1.0069580078125,0.07373046875,0.06494140625,3.3206106870229006,0.9618320610687023,28.16030534351145,pressup
1604240672.6807532,-0.8931884765625,0.106201171875,0.073486328125,4.931297709923665,2.7786259541984735,23.48854961832061,pressup
1604240672.7207532,-0.8546142578125,0.115478515625,0.061279296875,2.7022900763358777,1.9236641221374047,25.00763358778626,pressup
1604240672.7607532,-0.8026123046875,0.1435546875,0.087890625,3.427480916030534,8.01526717557252,16.51145038167939,pressup
1604240672.800753,-0.7891845703125,0.154541015625,0.080322265625,1.717557251908397,1.8015267175572518,11.076335877862595,pressup
1604240672.840753,-0.7430419921875,0.18017578125,0.0341796875,2.0076335877862594,-0.1984732824427481,3.801526717557252,pressup
1604240672.880753,-0.7032470703125,0.197998046875,0.028564453125,-0.1297709923664122,-0.7862595419847328,-6.129770992366412,pressup
1604240672.920753,-0.6827392578125,0.2197265625,-0.0072021484375,-0.022900763358778626,1.6488549618320612,-14.80916030534351,pressup
1604240672.960753,-0.7398681640625,0.214111328125,0.00390625,0.3893129770992366,1.4274809160305344,-13.709923664122137,pressup
1604240673.000753,-0.8797607421875,0.156005859375,0.035400390625,0.366412213740458,-3.5801526717557253,-13.778625954198473,pressup
1604240673.040753,-0.8785400390625,0.146728515625,0.043212890625,-1.4961832061068703,-0.8931297709923665,-20.412213740458014,pressup
1604240673.0807528,-0.9127197265625,0.0576171875,0.025390625,-4.145038167938932,-2.3969465648854964,-20.045801526717558,pressup
1604240673.1207528,-0.8973388671875,0.04638671875,0.059814453125,-2.435114503816794,-5.7251908396946565,-27.213740458015266,pressup
1604240673.1607528,-0.9444580078125,0.013916015625,0.0712890625,-2.7786259541984735,-2.7480916030534353,-27.045801526717558,pressup
1604240673.2007527,-0.9329833984375,-0.0064697265625,0.078369140625,-1.1603053435114503,-7.709923664122138,-29.732824427480917,pressup
1604240673.2407527,-1.0272216796875,0.0400390625,0.1005859375,-2.366412213740458,-1.9236641221374047,-25.198473282442748,pressup
1604240673.2807527,-0.9822998046875,0.00244140625,0.078125,-4.809160305343512,-6.3893129770992365,-26.16030534351145,pressup
1604240673.3207526,-1.0340576171875,-0.0318603515625,0.129150390625,-2.7709923664122136,-3.0610687022900764,-21.374045801526716,pressup
1604240673.3607526,-1.0767822265625,-0.0679931640625,0.08984375,-3.3053435114503817,-13.557251908396946,-18.51145038167939,pressup
1604240673.4007525,-0.9901123046875,-0.0487060546875,0.065673828125,-3.8625954198473282,-7.183206106870229,-16.404580152671755,pressup
1604240673.4407525,-0.9713134765625,-0.1168212890625,0.0849609375,-1.5114503816793894,-0.42748091603053434,-17.061068702290076,pressup
1604240673.4807525,-1.0013427734375,-0.1336669921875,0.112548828125,0.0,1.534351145038168,-14.251908396946565,pressup
1604240673.5207524,-1.0748291015625,-0.0936279296875,0.136474609375,1.6793893129770991,1.7938931297709924,-11.404580152671755,pressup
1604240673.5607524,-1.0670166015625,-0.0799560546875,0.124267578125,0.6259541984732825,-4.648854961832061,-4.480916030534351,pressup
1604240673.6007524,-1.0841064453125,-0.1063232421875,0.116943359375,-0.7022900763358778,-1.9236641221374047,3.717557251908397,pressup
1604240673.6407523,-1.1119384765625,-0.1331787109375,0.12890625,1.5725190839694656,-1.702290076335878,5.511450381679389,pressup
1604240673.6807523,-1.1075439453125,-0.0911865234375,0.120849609375,2.2061068702290076,-1.1984732824427482,10.427480916030534,pressup
1604240673.7207522,-1.0877685546875,-0.1629638671875,0.116943359375,3.5267175572519083,-1.984732824427481,14.007633587786259,pressup
1604240673.7607522,-1.0357666015625,-0.0894775390625,0.100830078125,4.5038167938931295,-0.007633587786259542,17.0381679389313,pressup
1604240673.8007522,-1.0169677734375,-0.0977783203125,0.0947265625,2.0610687022900764,3.519083969465649,22.259541984732824,pressup
1604240673.8407521,-1.0135498046875,-0.0555419921875,0.112060546875,3.2595419847328246,0.40458015267175573,17.984732824427482,pressup
1604240673.880752,-0.9566650390625,-0.0155029296875,0.123291015625,5.793893129770993,-1.9312977099236641,21.106870229007633,pressup
1604240673.920752,-0.9737548828125,0.009521484375,0.10009765625,4.534351145038168,0.7862595419847328,24.129770992366414,pressup
1604240673.960752,-0.8834228515625,-0.0269775390625,0.08984375,3.5419847328244276,3.114503816793893,21.984732824427482,pressup
1604240674.000752,-1.0299072265625,0.064697265625,0.090087890625,3.7022900763358777,3.801526717557252,25.83969465648855,pressup
1604240674.040752,-0.8204345703125,-0.0406494140625,0.0654296875,3.900763358778626,1.633587786259542,22.389312977099237,pressup
1604240674.080752,-1.0257568359375,0.070068359375,0.10986328125,4.076335877862595,10.229007633587786,24.671755725190838,pressup
1604240674.1207519,-0.8712158203125,0.05517578125,0.0595703125,3.1068702290076335,-3.8473282442748094,24.0381679389313,pressup
1604240674.1607518,-0.9715576171875,0.104248046875,0.069580078125,4.198473282442748,10.633587786259541,24.66412213740458,pressup
1604240674.2007518,-0.9647216796875,0.13671875,0.07470703125,2.0381679389312977,1.7328244274809161,24.47328244274809,pressup
1604240674.2407517,-0.8651123046875,0.1494140625,0.01171875,3.8625954198473282,-0.15267175572519084,20.610687022900763,pressup
1604240674.2807517,-0.8480224609375,0.090087890625,0.10400390625,4.0458015267175576,8.229007633587786,18.916030534351144,pressup
1604240674.3207517,-0.7728271484375,0.136962890625,0.0576171875,4.061068702290076,-1.7404580152671756,6.374045801526718,pressup
1604240674.3607516,-0.7196044921875,0.168212890625,0.035400390625,1.5725190839694656,12.870229007633588,-0.183206106870229,pressup
1604240674.4007516,-0.7899169921875,0.244140625,0.034423828125,0.7251908396946565,0.5648854961832062,-5.473282442748092,pressup
1604240674.4407516,-0.6802978515625,0.236572265625,-0.0106201171875,-0.17557251908396945,5.198473282442748,-7.862595419847328,pressup
1604240674.4807515,-0.8309326171875,0.21044921875,-0.0247802734375,-2.1603053435114505,1.4885496183206106,-6.99236641221374,pressup
1604240674.5207515,-0.9339599609375,0.189697265625,0.04833984375,1.748091603053435,1.8625954198473282,-7.450381679389313,pressup
1604240674.5607514,-0.9285888671875,0.181640625,-0.0225830078125,-0.4351145038167939,-17.396946564885496,-14.374045801526718,pressup
1604240674.6007514,-0.8067626953125,0.145263671875,-0.0128173828125,0.5038167938931297,0.17557251908396945,-16.755725190839694,pressup
1604240674.6407514,-0.9510498046875,0.0947265625,-0.0047607421875,-2.312977099236641,-8.511450381679388,-14.83969465648855,pressup
1604240674.6807513,-0.8905029296875,0.07958984375,0.008544921875,-4.870229007633588,-2.732824427480916,-22.213740458015266,pressup
1604240674.7207513,-0.8739013671875,0.037841796875,0.03076171875,-4.33587786259542,5.6183206106870225,-24.3206106870229,pressup
1604240674.7607512,-1.0145263671875,0.03857421875,0.058837890625,-3.114503816793893,-4.106870229007634,-23.709923664122137,pressup
1604240674.8007512,-0.9324951171875,-0.0030517578125,0.053466796875,-2.9083969465648853,-9.65648854961832,-23.259541984732824,pressup
1604240674.8407512,-0.9471435546875,0.01513671875,0.108642578125,-2.435114503816794,-3.6412213740458017,-23.061068702290076,pressup
1604240674.8807511,-0.9771728515625,0.000244140625,0.0986328125,-2.3893129770992365,-6.770992366412214,-23.358778625954198,pressup
1604240674.920751,-1.0072021484375,-0.0001220703125,0.102294921875,0.3816793893129771,-6.99236641221374,-21.786259541984734,pressup
1604240674.960751,-1.0357666015625,-0.0426025390625,0.08984375,-2.3053435114503817,-14.412213740458014,-16.977099236641223,pressup
1604240675.000751,-1.0538330078125,-0.0479736328125,0.100830078125,0.20610687022900764,-15.755725190839694,-14.80916030534351,pressup
1604240675.040751,-0.9708251953125,-0.0562744140625,0.083740234375,-1.984732824427481,-16.908396946564885,-14.763358778625955,pressup
1604240675.080751,-0.8927001953125,-0.0401611328125,0.0673828125,1.6412213740458015,-1.4351145038167938,-16.129770992366414,pressup
1604240675.120751,-1.0269775390625,-0.0833740234375,0.13427734375,-1.450381679389313,1.297709923664122,-13.946564885496183,pressup
1604240675.1607509,-1.0928955078125,-0.0906982421875,0.150634765625,0.45038167938931295,-3.946564885496183,-9.450381679389313,pressup
1604240675.2007508,-1.0704345703125,-0.0780029296875,0.146728515625,0.8625954198473282,0.06870229007633588,-7.2748091603053435,pressup
1604240675.2407508,-1.0323486328125,-0.0970458984375,0.112548828125,0.8625954198473282,-10.122137404580153,-0.24427480916030533,pressup
1604240675.2807508,-1.0848388671875,-0.0447998046875,0.130126953125,3.9389312977099236,-5.511450381679389,1.6717557251908397,pressup
1604240675.3207507,-1.0294189453125,-0.1019287109375,0.13232421875,2.3587786259541983,-7.465648854961832,6.2748091603053435,pressup
1604240675.3607507,-0.9984130859375,-0.0943603515625,0.129150390625,3.954198473282443,-1.3358778625954197,4.366412213740458,pressup
1604240675.4007506,-0.9923095703125,-0.1148681640625,0.1318359375,2.1068702290076335,3.2519083969465647,10.17557251908397,pressup
1604240675.4407506,-1.0599365234375,-0.0643310546875,0.1376953125,4.0,3.9923664122137406,10.282442748091603,pressup
1604240675.4807506,-1.0426025390625,-0.0648193359375,0.1279296875,0.5801526717557252,1.3053435114503817,12.564885496183207,pressup
1604240675.5207505,-0.9183349609375,-0.0533447265625,0.103515625,3.8931297709923665,6.893129770992366,14.702290076335878,pressup
1604240675.5607505,-1.0631103515625,-0.0838623046875,0.125,-0.44274809160305345,4.412213740458015,20.69465648854962,pressup
1604240675.6007504,-1.0128173828125,-0.0262451171875,0.129150390625,2.16793893129771,3.427480916030534,18.099236641221374,pressup
1604240675.6407504,-0.9844970703125,-0.0518798828125,0.108154296875,5.091603053435114,0.6259541984732825,20.083969465648856,pressup
1604240675.6807504,-0.9847412109375,-0.0040283203125,0.086181640625,3.9389312977099236,0.3053435114503817,22.46564885496183,pressup
1604240675.7207503,-0.9451904296875,0.005126953125,0.0888671875,6.343511450381679,-2.9236641221374047,20.83969465648855,pressup
1604240675.7607503,-0.9674072265625,0.04443359375,0.070068359375,2.5419847328244276,7.740458015267175,24.35114503816794,pressup
1604240675.8007503,-0.9376220703125,0.05810546875,0.0439453125,3.480916030534351,-0.7557251908396947,21.954198473282442,pressup
1604240675.8407502,-0.9464111328125,0.064697265625,0.087158203125,6.229007633587786,7.748091603053435,21.519083969465647,pressup
1604240675.8807502,-0.9578857421875,0.13818359375,0.083984375,4.572519083969466,-2.6259541984732824,23.229007633587788,pressup
1604240675.9207501,-0.8914794921875,0.14111328125,0.098388671875,5.549618320610687,4.541984732824427,23.022900763358777,pressup
1604240675.96075,-0.8441162109375,0.12109375,0.089111328125,2.4732824427480917,2.9389312977099236,19.16793893129771,pressup
1604240676.00075,-0.7723388671875,0.11669921875,0.0458984375,0.37404580152671757,9.122137404580153,13.282442748091603,pressup
1604240676.04075,-0.8182373046875,0.115966796875,0.04638671875,-3.8931297709923665,11.82442748091603,6.488549618320611,pressup
1604240676.08075,-0.8365478515625,0.1748046875,0.088134765625,1.1984732824427482,7.984732824427481,-2.5877862595419847,pressup
1604240676.12075,-0.8135986328125,0.189453125,0.0205078125,3.366412213740458,-2.33587786259542,-2.572519083969466,pressup
1604240676.16075,-0.8968505859375,0.203369140625,0.07177734375,1.6488549618320612,4.00763358778626,0.08396946564885496,pressup
1604240676.2007499,-0.9283447265625,0.184326171875,0.0283203125,1.183206106870229,-8.83969465648855,-0.10687022900763359,pressup
1604240676.2407498,-0.8961181640625,0.114990234375,0.021240234375,-0.3816793893129771,2.145038167938931,-3.66412213740458,pressup
1604240676.2807498,-0.9168701171875,0.158935546875,0.026123046875,1.1908396946564885,-0.2748091603053435,-5.3816793893129775,pressup
1604240676.3207498,-0.9146728515625,0.13623046875,0.03662109375,2.572519083969466,3.6793893129770994,-5.137404580152672,pressup
1604240676.3607497,-0.9632568359375,0.12646484375,0.071044921875,2.122137404580153,-5.1603053435114505,-8.725190839694656,pressup
1604240676.4007497,-0.8690185546875,0.122802734375,0.046142578125,0.816793893129771,-3.4122137404580153,-7.541984732824427,pressup
1604240676.4407496,-0.9217529296875,0.12646484375,0.043212890625,0.05343511450381679,-2.4656488549618323,-12.778625954198473,pressup
1604240676.4807496,-0.8204345703125,0.14990234375,0.00146484375,-2.1908396946564888,-4.534351145038168,-16.206106870229007,pressup
1604240676.5207496,-0.8394775390625,0.118896484375,0.02783203125,-1.9694656488549618,4.656488549618321,-16.251908396946565,pressup
1604240676.5607495,-0.8902587890625,0.065185546875,0.04833984375,-3.236641221374046,-1.1068702290076335,-20.9618320610687,pressup
1604240676.6007495,-0.8377685546875,0.1240234375,0.044189453125,-3.030534351145038,3.099236641221374,-24.480916030534353,pressup
1604240676.6407495,-0.9061279296875,0.042236328125,0.03173828125,-4.748091603053435,0.648854961832061,-24.366412213740457,pressup
1604240676.6807494,-0.9329833984375,0.0712890625,0.053955078125,-3.4198473282442747,-1.7328244274809161,-24.114503816793892,pressup
1604240676.7207494,-1.0443115234375,0.007080078125,0.0234375,-3.66412213740458,-3.0916030534351147,-24.17557251908397,pressup
1604240676.7607493,-0.9713134765625,-0.0123291015625,0.0615234375,-4.511450381679389,-1.366412213740458,-22.83206106870229,pressup
1604240676.8007493,-0.9932861328125,-0.0323486328125,0.089111328125,-2.6030534351145036,-9.083969465648854,-23.099236641221374,pressup
1604240676.8407493,-0.9969482421875,-0.0328369140625,0.048828125,-1.9770992366412214,1.2900763358778626,-18.206106870229007,pressup
1604240676.8807492,-1.0745849609375,-0.0679931640625,0.088134765625,-0.4732824427480916,-2.2442748091603053,-19.137404580152673,pressup
1604240676.9207492,-1.0682373046875,-0.1248779296875,0.10986328125,-1.9389312977099236,3.7404580152671754,-16.557251908396946,pressup
1604240676.9607491,-1.0662841796875,-0.0802001953125,0.087890625,1.4885496183206106,-7.3893129770992365,-11.877862595419847,pressup
1604240677.000749,-1.0413818359375,-0.0921630859375,0.1083984375,0.732824427480916,-2.0076335877862594,-6.793893129770993,pressup
1604240677.040749,-1.1392822265625,-0.0885009765625,0.072509765625,1.0381679389312977,-6.183206106870229,-1.534351145038168,pressup
1604240677.080749,-1.0863037109375,-0.0814208984375,0.089599609375,0.8091603053435115,-0.2748091603053435,2.6259541984732824,pressup
1604240677.120749,-1.1500244140625,-0.1212158203125,0.072998046875,2.4885496183206106,-6.412213740458015,7.8320610687022905,pressup
1604240677.160749,-1.0963134765625,-0.1275634765625,0.083984375,4.488549618320611,-0.816793893129771,13.030534351145038,pressup
1604240677.200749,-1.1488037109375,-0.0885009765625,0.073486328125,4.534351145038168,-8.48091603053435,11.83969465648855,pressup
1604240677.240749,-0.9830322265625,-0.0965576171875,0.0634765625,4.709923664122138,-2.8931297709923665,16.129770992366414,pressup
1604240677.2807488,-0.9791259765625,-0.0491943359375,0.081787109375,6.435114503816794,-7.442748091603053,19.671755725190838,pressup
1604240677.3207488,-0.9747314453125,0.000732421875,0.064208984375,2.2290076335877864,-3.4122137404580153,24.068702290076335,pressup
1604240677.3607488,-0.8697509765625,-0.0472412109375,0.057861328125,1.7328244274809161,-2.5267175572519083,18.954198473282442,pressup
1604240677.4007487,-0.9947509765625,0.037109375,0.08837890625,1.4809160305343512,8.954198473282442,20.870229007633586,pressup
1604240677.4407487,-0.9493408203125,0.015380859375,0.071533203125,2.7938931297709924,1.2748091603053435,19.427480916030536,pressup
1604240677.4807487,-0.9627685546875,0.050537109375,0.072998046875,2.946564885496183,5.175572519083969,22.114503816793892,pressup
1604240677.5207486,-0.9390869140625,0.072509765625,0.060302734375,3.8396946564885495,2.3206106870229006,23.114503816793892,pressup
1604240677.5607486,-0.9342041015625,0.087158203125,0.0849609375,7.396946564885496,13.793893129770993,30.404580152671755,pressup
1604240677.6007485,-0.9779052734375,0.083740234375,0.045166015625,2.5572519083969465,0.5877862595419847,34.0763358778626,pressup
1604240677.6407485,-0.7723388671875,0.163330078125,0.03515625,10.702290076335878,10.946564885496183,34.00763358778626,pressup
1604240677.6807485,-0.4779052734375,0.179443359375,-0.0032958984375,21.389312977099237,19.72519083969466,65.30534351145039,pressup
1604240677.7207484,-0.6246337890625,0.296875,0.06884765625,5.6106870229007635,29.862595419847327,100.93893129770993,pressup
1604240677.7607484,-0.9503173828125,0.372314453125,0.16845703125,-7.022900763358779,12.312977099236642,115.90839694656489,pressup
1604240677.8007483,-1.0699462890625,0.396484375,0.04296875,-6.786259541984733,8.106870229007633,122.38167938931298,pressup
1604240677.8407483,-1.0157470703125,0.436279296875,-0.0689697265625,-12.82442748091603,2.267175572519084,114.2824427480916,pressup
1604240677.8807483,-0.8228759765625,0.4169921875,-0.1517333984375,-14.801526717557252,25.18320610687023,90.52671755725191,pressup
1604240677.9207482,-0.9700927734375,0.34033203125,-0.1483154296875,-22.603053435114504,11.404580152671755,79.74045801526718,pressup
1604240677.9607482,-0.7301025390625,0.42724609375,-0.0594482421875,-11.687022900763358,11.938931297709924,67.43511450381679,pressup
1604240678.0007482,-0.7794189453125,0.513671875,-0.0201416015625,-10.381679389312977,23.770992366412212,62.045801526717554,pressup
1604240678.0407481,-0.5904541015625,0.593017578125,-0.0255126953125,-5.290076335877862,7.709923664122138,59.48854961832061,pressup
1604240678.080748,-0.6456298828125,0.614013671875,-0.0404052734375,-7.885496183206107,3.1374045801526718,56.25954198473283,pressup
1604240678.120748,-0.5330810546875,0.700927734375,0.005859375,-9.549618320610687,19.061068702290076,63.465648854961835,pressup
1604240678.160748,-0.5391845703125,0.78759765625,0.0185546875,-6.6183206106870225,37.93129770992366,70.93893129770993,pressup
1604240678.200748,-1.8731689453125,1.4287109375,0.098876953125,-49.20610687022901,43.213740458015266,17.49618320610687,pressup
1604240678.240748,-0.4901123046875,0.879638671875,-0.2388916015625,-4.0,-76.8854961832061,49.74045801526717,pressup
1604240678.280748,0.18994140625,0.637451171875,-0.0257568359375,-16.801526717557252,-1.7633587786259541,94.19847328244275,pressup
1604240678.3207479,-0.5562744140625,0.71484375,0.19482421875,-4.129770992366412,22.076335877862597,67.12977099236642,pressup
1604240678.3607478,-0.7999267578125,0.784912109375,-0.0994873046875,15.206106870229007,-75.87022900763358,58.63358778625954,pressup
1604240678.4007478,-0.0733642578125,1.001220703125,0.064453125,26.450381679389313,-60.045801526717554,66.20610687022901,pressup
1604240678.4407477,0.04443359375,1.04638671875,0.048095703125,10.183206106870228,20.885496183206108,54.33587786259542,pressup
1604240678.4807477,-0.4078369140625,0.830078125,0.0859375,5.557251908396947,39.045801526717554,47.717557251908396,pressup
1604240678.5207477,-0.3253173828125,0.921630859375,0.04296875,14.961832061068701,12.15267175572519,47.13740458015267,pressup
1604240678.5607476,-0.2313232421875,0.85986328125,-0.0462646484375,23.763358778625953,-9.51908396946565,41.091603053435115,pressup
1604240678.6007476,-0.1646728515625,0.97802734375,-0.1158447265625,24.0381679389313,-4.603053435114504,36.3206106870229,pressup
1604240678.6407475,-0.2237548828125,1.053955078125,-0.2022705078125,8.50381679389313,12.603053435114504,34.70229007633588,pressup
1604240678.6807475,-0.2337646484375,0.963623046875,-0.1348876953125,0.7786259541984732,21.82442748091603,34.274809160305345,pressup
1604240678.7207475,-0.1553955078125,0.91259765625,-0.0467529296875,4.931297709923665,3.5267175572519083,30.64885496183206,pressup
1604240678.7607474,-0.0631103515625,0.980224609375,-0.0650634765625,9.595419847328245,-17.549618320610687,18.53435114503817,pressup
1604240678.8007474,-0.0416259765625,1.04150390625,-0.1341552734375,0.030534351145038167,-19.396946564885496,14.885496183206106,pressup
1604240678.8407474,-0.0079345703125,0.993896484375,-0.1009521484375,-2.7022900763358777,0.19083969465648856,13.877862595419847,pressup
1604240678.8807473,-0.0689697265625,0.918701171875,-0.0323486328125,-5.961832061068702,19.48854961832061,7.206106870229007,pressup
1604240678.9207473,-0.1192626953125,1.001953125,-0.0089111328125,-5.641221374045801,13.427480916030534,2.7022900763358777,pressup
1604240678.9607472,-0.1204833984375,1.01806640625,-0.0574951171875,-3.0,5.206106870229007,1.5572519083969465,pressup
1604240679.0007472,-0.1107177734375,0.9814453125,-0.0841064453125,-1.0916030534351144,2.213740458015267,0.6641221374045801,pressup
1604240679.0407472,-0.1143798828125,0.970703125,-0.0682373046875,2.7099236641221376,0.9083969465648855,-0.32061068702290074,pressup
1604240679.0807471,-0.1092529296875,0.957763671875,-0.0423583984375,1.4885496183206106,-2.0839694656488548,-1.4351145038167938,pressup
1604240679.120747,-0.0909423828125,0.986083984375,-0.0384521484375,2.1374045801526718,-5.068702290076335,-2.648854961832061,pressup
1604240679.160747,-0.0880126953125,0.9931640625,-0.0755615234375,-1.4732824427480915,-2.2900763358778624,-3.5343511450381677,pressup
1604240679.200747,-0.0816650390625,0.97412109375,-0.0889892578125,-2.7251908396946565,0.6183206106870229,-3.8244274809160306,pressup
1604240679.240747,-0.1075439453125,0.972900390625,-0.0638427734375,-0.007633587786259542,2.763358778625954,-4.106870229007634,pressup
1604240679.280747,-0.1231689453125,0.98046875,-0.0364990234375,-2.854961832061069,1.8854961832061068,-4.145038167938932,pressup
1604240679.320747,-0.1312255859375,0.968994140625,-0.0433349609375,-0.9236641221374046,-0.0916030534351145,-3.8396946564885495,pressup
1604240679.3607469,-0.1353759765625,0.994384765625,-0.0289306640625,-1.1450381679389312,-0.48854961832061067,-3.312977099236641,pressup
1604240679.4007468,-0.1304931640625,0.989990234375,-0.0592041015625,0.20610687022900764,-0.7862595419847328,-3.763358778625954,pressup
1604240679.4407468,-0.1258544921875,0.974365234375,-0.0574951171875,-2.282442748091603,0.5419847328244275,-3.4580152671755724,pressup
1604240679.4807467,-0.1312255859375,0.97314453125,-0.0599365234375,-1.0076335877862594,0.9389312977099237,-2.9389312977099236,pressup
1604240679.5207467,-0.1414794921875,0.970703125,-0.0533447265625,-1.4580152671755726,0.12213740458015267,-2.33587786259542,pressup
1604240679.5607467,-0.1400146484375,0.97314453125,-0.0423583984375,-1.1526717557251909,0.7099236641221374,-1.3129770992366412,pressup
1604240679.6007466,-0.1492919921875,0.97119140625,-0.0382080078125,-0.2824427480916031,-1.6793893129770991,-1.083969465648855,pressup
