accel_x,accel_y,accel_z,gyro_x,gyro_y,gyro_z,label
1604240036.2786756,0.60498046875,0.784423828125,-0.0928955078125,-10.374045801526718,0.3893129770992366,67.74045801526718,squat
1604240036.3186755,0.70166015625,0.713623046875,-0.0130615234375,-3.16793893129771,19.35114503816794,62.76335877862596,squat
1604240036.3586755,0.646484375,0.740234375,-0.0225830078125,3.3206106870229006,14.49618320610687,63.0,squat
1604240036.3986754,0.721923828125,0.74365234375,0.008056640625,-2.717557251908397,5.145038167938932,66.41221374045801,squat
1604240036.4386754,0.84765625,0.665283203125,-0.0245361328125,4.778625954198473,14.473282442748092,60.16793893129771,squat
1604240036.4786754,0.606201171875,0.63818359375,0.00732421875,-0.1297709923664122,13.549618320610687,61.12213740458015,squat
1604240036.5186753,1.020751953125,0.61328125,0.02685546875,-0.7938931297709924,16.404580152671755,58.30534351145038,squat
1604240036.5586753,0.807373046875,0.628173828125,0.011962890625,8.213740458015268,12.763358778625955,54.404580152671755,squat
1604240036.5986753,0.968994140625,0.5361328125,0.027099609375,9.48091603053435,15.961832061068701,53.465648854961835,squat
1604240036.6386752,0.86962890625,0.492919921875,0.033203125,9.557251908396946,-0.7099236641221374,50.56488549618321,squat
1604240036.6786752,1.0576171875,0.486572265625,0.020263671875,3.0229007633587788,12.541984732824428,46.10687022900763,squat
1604240036.7186751,0.792236328125,0.46826171875,0.118408203125,8.473282442748092,12.755725190839694,47.58015267175573,squat
1604240036.758675,0.9892578125,0.524169921875,0.050537109375,13.564885496183207,-11.877862595419847,46.61832061068702,squat
1604240036.798675,0.967041015625,0.46142578125,0.009765625,-1.0076335877862594,15.488549618320612,41.61832061068702,squat
1604240036.838675,0.970458984375,0.39697265625,0.019775390625,0.3435114503816794,-5.221374045801527,43.25190839694657,squat
1604240036.878675,0.99853515625,0.43359375,0.023681640625,-1.6870229007633588,2.381679389312977,36.70992366412214,squat
1604240036.918675,1.098388671875,0.40966796875,-0.0186767578125,-4.305343511450381,4.236641221374046,28.763358778625953,squat
1604240036.958675,0.977783203125,0.41455078125,0.0615234375,2.236641221374046,-1.366412213740458,18.80916030534351,squat
1604240036.9986749,1.203125,0.408203125,0.041748046875,1.9770992366412214,-0.5419847328244275,5.129770992366412,squat
1604240037.0386748,1.315185546875,0.46337890625,0.01220703125,5.351145038167939,-8.282442748091603,-8.877862595419847,squat
1604240037.0786748,1.221435546875,0.4755859375,0.004638671875,6.091603053435114,-5.67175572519084,-28.984732824427482,squat
1604240037.1186748,1.2470703125,0.482177734375,0.046142578125,-1.4427480916030535,0.4122137404580153,-48.68702290076336,squat
1604240037.1586747,1.135009765625,0.517333984375,0.04931640625,-2.8931297709923665,-8.595419847328245,-64.1526717557252,squat
1604240037.1986747,1.093505859375,0.52197265625,0.028564453125,-6.282442748091603,-15.900763358778626,-78.38167938931298,squat
1604240037.2386746,0.98828125,0.544921875,-0.0228271484375,-7.0458015267175576,-20.83206106870229,-88.55725190839695,squat
1604240037.2786746,0.9658203125,0.543212890625,-0.0238037109375,-4.091603053435114,-25.12213740458015,-95.62595419847328,squat
1604240037.3186746,0.840576171875,0.57958984375,-0.0386962890625,-0.9618320610687023,-32.63358778625954,-96.70229007633588,squat
1604240037.3586745,0.7939453125,0.65380859375,-0.0369873046875,-4.106870229007634,-35.229007633587784,-94.87786259541984,squat
1604240037.3986745,0.697265625,0.680908203125,-0.0396728515625,-5.770992366412214,-34.63358778625954,-94.43511450381679,squat
1604240037.4386744,0.60205078125,0.774169921875,-0.0594482421875,-15.305343511450381,-40.20610687022901,-92.82442748091603,squat
1604240037.4786744,0.6201171875,0.715087890625,-0.1495361328125,-16.267175572519083,-27.702290076335878,-93.87786259541984,squat
1604240037.5186744,0.497314453125,0.738037109375,-0.1170654296875,-20.114503816793892,-19.702290076335878,-99.70992366412214,squat
1604240037.5586743,0.390625,0.7373046875,-0.0660400390625,-12.15267175572519,-26.19083969465649,-100.89312977099236,squat
1604240037.5986743,0.439697265625,0.759033203125,-0.0931396484375,-10.442748091603054,-16.564885496183205,-94.61832061068702,squat
1604240037.6386743,0.384521484375,0.745849609375,-0.0316162109375,-2.7480916030534353,-15.488549618320612,-88.89312977099236,squat
1604240037.6786742,0.31591796875,0.829833984375,-0.0150146484375,-11.557251908396946,-10.251908396946565,-77.76335877862596,squat
1604240037.7186742,0.298828125,0.831787109375,-0.0523681640625,3.3206106870229006,-18.748091603053435,-73.9618320610687,squat
1604240037.7586741,0.267822265625,0.9111328125,-0.0718994140625,2.7709923664122136,-29.740458015267176,-66.46564885496183,squat
1604240037.798674,0.171875,0.91650390625,-0.0526123046875,-8.755725190839694,-12.442748091603054,-57.70229007633588,squat
1604240037.838674,0.113525390625,0.943603515625,-0.0604248046875,5.977099236641221,-12.900763358778626,-64.61832061068702,squat
1604240037.878674,-0.0355224609375,0.943115234375,-0.0008544921875,-4.809160305343512,-12.427480916030534,-54.61068702290076,squat
1604240037.918674,0.084228515625,0.914794921875,-0.0738525390625,1.7786259541984732,-7.679389312977099,-52.61068702290076,squat
1604240037.958674,0.162109375,0.983154296875,-0.0965576171875,-6.526717557251908,29.129770992366414,-59.17557251908397,squat
1604240037.998674,-0.0543212890625,1.003662109375,-0.0181884765625,-4.641221374045801,30.374045801526716,-55.18320610687023,squat
1604240038.0386739,-0.1578369140625,1.0712890625,-0.0108642578125,-5.282442748091603,43.717557251908396,-38.64885496183206,squat
1604240038.0786738,0.031982421875,1.019287109375,0.000732421875,-7.809160305343512,35.14503816793893,-23.938931297709924,squat
1604240038.1186738,-0.1488037109375,0.970703125,0.014404296875,-5.122137404580153,15.534351145038167,-13.625954198473282,squat
1604240038.1586738,-0.2030029296875,0.96142578125,-0.0418701171875,-6.190839694656488,17.061068702290076,-9.030534351145038,squat
1604240038.1986737,-0.1971435546875,0.95849609375,0.020751953125,6.442748091603053,0.8931297709923665,-12.67175572519084,squat
1604240038.2386737,-0.0374755859375,1.012939453125,0.034423828125,-3.3282442748091605,10.778625954198473,5.3893129770992365,squat
1604240038.2786736,-0.1856689453125,0.95556640625,0.02978515625,-3.6030534351145036,0.5725190839694656,15.13740458015267,squat
1604240038.3186736,-0.1820068359375,0.961181640625,0.012451171875,5.625954198473282,-17.389312977099237,19.282442748091604,squat
1604240038.3586736,-0.1339111328125,0.994873046875,-0.0321044921875,5.702290076335878,-8.007633587786259,24.419847328244273,squat
1604240038.3986735,-0.1317138671875,0.97314453125,0.054443359375,0.7709923664122137,1.7404580152671756,25.091603053435115,squat
1604240038.4386735,-0.0860595703125,0.955810546875,-0.0257568359375,-13.404580152671755,-5.541984732824427,37.47328244274809,squat
1604240038.4786735,-0.1126708984375,0.95654296875,0.006103515625,-0.3893129770992366,-7.358778625954199,38.16030534351145,squat
1604240038.5186734,-0.0780029296875,1.00341796875,-0.0133056640625,-12.618320610687023,-15.587786259541986,44.44274809160305,squat
1604240038.5586734,0.09228515625,0.998779296875,-0.0245361328125,3.5267175572519083,1.6259541984732824,38.61068702290076,squat
1604240038.5986733,0.167724609375,1.005615234375,-0.0621337890625,-18.938931297709924,19.49618320610687,55.969465648854964,squat
1604240038.6386733,0.08740234375,0.982177734375,-0.0255126953125,-5.374045801526718,30.106870229007633,47.38167938931298,squat
1604240038.6786733,0.117431640625,0.940673828125,0.032958984375,-10.938931297709924,23.862595419847327,57.06106870229008,squat
1604240038.7186732,0.192626953125,0.974365234375,-0.1461181640625,-5.755725190839694,6.748091603053435,56.70992366412214,squat
1604240038.7586732,0.417236328125,0.890869140625,0.0224609375,-7.786259541984733,34.396946564885496,62.82442748091603,squat
1604240038.7986732,0.33984375,0.9208984375,-0.2008056640625,9.526717557251908,33.954198473282446,62.961832061068705,squat
1604240038.838673,0.3408203125,0.944091796875,-0.0037841796875,2.2900763358778624,30.259541984732824,61.89312977099237,squat
1604240038.878673,0.24658203125,0.888427734375,-0.0697021484375,18.984732824427482,5.221374045801527,82.66412213740458,squat
1604240038.918673,0.323974609375,0.74951171875,-0.0084228515625,-9.870229007633588,10.122137404580153,84.42748091603053,squat
1604240038.958673,0.45751953125,0.843994140625,0.00048828125,10.183206106870228,-24.702290076335878,91.74809160305344,squat
1604240038.998673,0.456298828125,0.80908203125,-0.0269775390625,3.7557251908396947,-2.6717557251908395,95.79389312977099,squat
1604240039.038673,0.574951171875,0.724609375,0.05322265625,-5.0458015267175576,-7.106870229007634,82.20610687022901,squat
1604240039.078673,0.555419921875,0.72802734375,-0.0311279296875,4.770992366412214,-3.114503816793893,76.47328244274809,squat
1604240039.1186728,0.767578125,0.766845703125,-0.0406494140625,-9.877862595419847,17.282442748091604,77.74045801526718,squat
1604240039.1586728,0.634765625,0.6806640625,0.0,1.0,9.633587786259541,75.38167938931298,squat
1604240039.1986728,0.77001953125,0.716552734375,-0.0369873046875,1.8549618320610688,9.007633587786259,75.74809160305344,squat
1604240039.2386727,0.74169921875,0.6689453125,0.081298828125,4.526717557251908,16.259541984732824,74.3969465648855,squat
1604240039.2786727,0.81298828125,0.5927734375,-0.0069580078125,6.229007633587786,3.8702290076335877,73.79389312977099,squat
1604240039.3186727,0.808349609375,0.55615234375,0.079345703125,6.458015267175573,0.183206106870229,74.68702290076335,squat
1604240039.3586726,0.953369140625,0.527587890625,0.03759765625,5.793893129770993,-5.030534351145038,72.4885496183206,squat
1604240039.3986726,0.908935546875,0.545166015625,-0.0426025390625,-1.5801526717557253,10.511450381679388,66.64885496183206,squat
1604240039.4386725,1.104736328125,0.415283203125,0.064697265625,-0.061068702290076333,-1.717557251908397,72.0,squat
1604240039.4786725,0.97021484375,0.453125,-0.0408935546875,-4.755725190839694,1.2671755725190839,60.02290076335878,squat
1604240039.5186725,1.04931640625,0.376953125,-0.0264892578125,-1.3740458015267176,3.3206106870229006,55.23664122137404,squat
1604240039.5586724,1.10498046875,0.356689453125,0.03369140625,2.519083969465649,-3.4198473282442747,47.908396946564885,squat
1604240039.5986724,1.23193359375,0.3779296875,-0.0028076171875,-1.183206106870229,1.1603053435114503,30.259541984732824,squat
1604240039.6386724,1.10009765625,0.373291015625,0.0625,6.534351145038168,3.5114503816793894,14.458015267175572,squat
1604240039.6786723,1.24462890625,0.42919921875,0.039306640625,11.725190839694656,11.977099236641221,12.908396946564885,squat
1604240039.7186723,1.244873046875,0.4326171875,0.092041015625,5.8396946564885495,4.519083969465649,-24.076335877862597,squat
1604240039.7586722,1.20849609375,0.458984375,0.02099609375,0.3816793893129771,-2.854961832061069,-44.74045801526717,squat
1604240039.7986722,1.21044921875,0.4501953125,0.015380859375,3.572519083969466,-7.1679389312977095,-63.770992366412216,squat
1604240039.8386722,1.136474609375,0.433837890625,0.052490234375,1.8931297709923665,-0.8320610687022901,-82.5114503816794,squat
1604240039.8786721,1.051025390625,0.530029296875,0.059814453125,2.687022900763359,-9.82442748091603,-92.3587786259542,squat
1604240039.918672,1.013916015625,0.50927734375,0.00927734375,-2.732824427480916,-20.977099236641223,-99.9618320610687,squat
1604240039.958672,0.8916015625,0.555908203125,0.02294921875,-0.20610687022900764,-33.0,-105.3969465648855,squat
1604240039.998672,0.866943359375,0.56201171875,-0.0484619140625,1.4809160305343512,-45.87022900763359,-113.18320610687023,squat
1604240040.038672,0.739501953125,0.68359375,-0.0240478515625,-26.480916030534353,-105.36641221374046,-120.22137404580153,squat
1604240040.078672,0.615966796875,0.733154296875,0.019775390625,-7.145038167938932,-41.98473282442748,-108.34351145038168,squat
1604240040.118672,0.668701171875,0.768798828125,-0.0823974609375,-17.69465648854962,-41.717557251908396,-106.3587786259542,squat
1604240040.1586719,0.566162109375,0.68896484375,-0.1099853515625,-16.69465648854962,-11.15267175572519,-123.9618320610687,squat
1604240040.1986718,0.24169921875,0.712158203125,-0.1136474609375,-13.992366412213741,-23.412213740458014,-121.99236641221374,squat
1604240040.2386718,0.387939453125,0.680419921875,-0.0225830078125,-2.198473282442748,-20.236641221374047,-112.40458015267176,squat
1604240040.2786717,0.35107421875,0.73779296875,0.026123046875,-8.633587786259541,-16.34351145038168,-106.37404580152672,squat
1604240040.3186717,0.29248046875,0.88037109375,-0.1676025390625,-13.816793893129772,-14.106870229007633,-104.6793893129771,squat
1604240040.3586717,0.016845703125,0.76416015625,-0.0430908203125,1.9083969465648856,-26.396946564885496,-87.54198473282443,squat
1604240040.3986716,0.157470703125,0.88818359375,-0.0701904296875,-7.694656488549619,-8.022900763358779,-74.09923664122137,squat
1604240040.4386716,0.14013671875,0.9033203125,-0.0675048828125,8.442748091603054,-23.557251908396946,-63.62595419847328,squat
1604240040.4786716,0.09814453125,1.025390625,0.017822265625,-2.801526717557252,14.633587786259541,-70.07633587786259,squat
1604240040.5186715,0.13671875,1.016845703125,-0.1180419921875,-8.511450381679388,14.877862595419847,-56.969465648854964,squat
1604240040.5586715,0.079833984375,1.021240234375,-0.0906982421875,-3.6106870229007635,21.51145038167939,-45.0,squat
1604240040.5986714,-0.0499267578125,1.009765625,0.032958984375,-3.633587786259542,12.687022900763358,-24.229007633587788,squat
1604240040.6386714,-0.0015869140625,0.931396484375,-0.0306396484375,0.13740458015267176,5.412213740458015,-16.557251908396946,squat
1604240040.6786714,-0.0953369140625,0.96875,0.02783203125,-1.0763358778625953,3.7404580152671754,-7.175572519083969,squat
1604240040.7186713,-0.1451416015625,0.96044921875,-0.0421142578125,-0.08396946564885496,44.3206106870229,-11.358778625954198,squat
1604240040.7586713,0.100830078125,1.06298828125,0.15771484375,-0.3893129770992366,22.83969465648855,-1.4885496183206106,squat
1604240040.7986712,-0.3333740234375,0.97314453125,0.05615234375,-0.3969465648854962,-5.190839694656488,0.6793893129770993,squat
1604240040.8386712,-0.1322021484375,0.9677734375,-0.0338134765625,6.778625954198473,-5.778625954198473,2.0229007633587788,squat
1604240040.8786712,-0.1346435546875,0.95849609375,-0.0574951171875,4.091603053435114,-1.1526717557251909,8.557251908396946,squat
1604240040.9186711,-0.1859130859375,0.9892578125,-0.0074462890625,4.122137404580153,5.854961832061068,10.114503816793894,squat
1604240040.958671,-0.2091064453125,0.955810546875,-0.0238037109375,5.557251908396947,-0.46564885496183206,14.099236641221374,squat
1604240040.998671,-0.1495361328125,0.959716796875,0.015380859375,-1.816793893129771,-4.083969465648855,24.206106870229007,squat
1604240041.038671,-0.1260986328125,0.9736328125,0.055908203125,-1.3511450381679388,-9.007633587786259,28.83206106870229,squat
1604240041.078671,-0.0604248046875,0.965087890625,-0.0025634765625,-6.129770992366412,-13.282442748091603,36.091603053435115,squat
1604240041.118671,0.0283203125,1.03759765625,-0.0225830078125,-13.030534351145038,-10.50381679389313,43.282442748091604,squat
1604240041.158671,0.135986328125,0.984130859375,0.041748046875,0.46564885496183206,2.6412213740458017,39.06106870229008,squat
1604240041.1986709,0.177978515625,0.994873046875,-0.0540771484375,-3.2900763358778624,21.14503816793893,41.80916030534351,squat
1604240041.2386708,0.11572265625,0.952392578125,0.044921875,-3.1908396946564888,2.6564885496183206,39.52671755725191,squat
1604240041.2786708,0.3388671875,0.93310546875,-0.1026611328125,11.877862595419847,15.816793893129772,49.51145038167939,squat
1604240041.3186707,0.2216796875,0.909912109375,0.03857421875,-0.3282442748091603,15.48091603053435,50.38931297709924,squat
1604240041.3586707,0.355224609375,0.929931640625,-0.0372314453125,-2.7404580152671754,21.14503816793893,56.20610687022901,squat
1604240041.3986707,0.257080078125,0.853271484375,0.068115234375,5.923664122137405,36.70229007633588,61.79389312977099,squat
1604240041.4386706,0.26220703125,0.89404296875,-0.0482177734375,-3.816793893129771,23.213740458015266,70.61832061068702,squat
1604240041.4786706,0.333251953125,0.9169921875,-0.0257568359375,9.267175572519085,7.961832061068702,74.29770992366412,squat
1604240041.5186706,0.290771484375,0.76220703125,0.017333984375,21.480916030534353,-1.7328244274809161,86.54198473282443,squat
1604240041.5586705,0.418701171875,0.852783203125,-0.1478271484375,-2.885496183206107,-9.32824427480916,91.19083969465649,squat
1604240041.5986705,0.42626953125,0.810546875,0.04541015625,-6.244274809160306,5.5038167938931295,96.78625954198473,squat
1604240041.6386704,0.78271484375,0.7919921875,-0.1273193359375,9.83969465648855,-7.580152671755725,96.56488549618321,squat
1604240041.6786704,0.66455078125,0.741455078125,-0.0999755859375,-5.022900763358779,10.625954198473282,81.35114503816794,squat
1604240041.7186704,0.635498046875,0.6630859375,-0.0220947265625,4.175572519083969,4.732824427480916,78.29007633587786,squat
1604240041.7586703,0.659423828125,0.69482421875,-0.1036376953125,5.366412213740458,11.908396946564885,83.61068702290076,squat
1604240041.7986703,0.78076171875,0.582763671875,-0.0206298828125,3.9770992366412212,7.99236641221374,81.54961832061069,squat
1604240041.8386703,0.865234375,0.585205078125,-0.0396728515625,12.80916030534351,9.076335877862595,77.97709923664122,squat
1604240041.8786702,0.809814453125,0.579345703125,-0.0433349609375,11.618320610687023,12.442748091603054,76.80152671755725,squat
1604240041.9186702,1.010009765625,0.498779296875,-0.0079345703125,3.633587786259542,24.091603053435115,76.12213740458016,squat
1604240041.9586701,0.658935546875,0.56298828125,0.01953125,11.549618320610687,8.770992366412214,75.56488549618321,squat
1604240041.99867,1.15869140625,0.5361328125,0.00927734375,-6.038167938931298,11.793893129770993,76.4885496183206,squat
1604240042.03867,0.7783203125,0.56982421875,0.015380859375,0.9770992366412213,4.977099236641221,69.10687022900764,squat
1604240042.07867,1.19873046875,0.484375,0.0283203125,4.083969465648855,42.9236641221374,93.61068702290076,squat
1604240042.11867,1.026123046875,0.44091796875,0.03369140625,-5.4961832061068705,5.0,64.06106870229007,squat
1604240042.15867,1.322265625,0.409423828125,-0.0430908203125,-0.2595419847328244,16.61832061068702,43.31297709923664,squat
1604240042.19867,1.035888671875,0.310546875,0.1064453125,4.038167938931298,10.564885496183207,28.19083969465649,squat
1604240042.2386699,1.401611328125,0.36181640625,0.02197265625,4.67175572519084,-0.4580152671755725,5.351145038167939,squat
1604240042.2786698,1.187744140625,0.42431640625,0.11572265625,3.7480916030534353,-0.32061068702290074,-16.137404580152673,squat
1604240042.3186698,1.2734375,0.4677734375,0.06201171875,3.7099236641221376,-5.259541984732825,-36.267175572519086,squat
1604240042.3586698,1.214599609375,0.443359375,0.05810546875,0.7175572519083969,-1.7786259541984732,-57.19083969465649,squat
1604240042.3986697,1.16552734375,0.434326171875,0.02783203125,3.9236641221374047,-6.3893129770992365,-73.04580152671755,squat
1604240042.4386697,1.18408203125,0.46630859375,0.0302734375,3.1068702290076335,-10.13740458015267,-88.89312977099236,squat
1604240042.4786696,1.010009765625,0.52685546875,0.018798828125,-0.4961832061068702,-17.625954198473284,-96.52671755725191,squat
1604240042.5186696,0.993408203125,0.495849609375,0.029541015625,-0.007633587786259542,-31.16793893129771,-104.6793893129771,squat
1604240042.5586696,0.8857421875,0.536376953125,-0.0135498046875,-4.465648854961832,-34.64885496183206,-111.03053435114504,squat
1604240042.5986695,0.82373046875,0.543212890625,0.0,-1.4045801526717556,-52.458015267175576,-116.34351145038168,squat
1604240042.6386695,0.727294921875,0.6904296875,-0.0345458984375,-16.15267175572519,-62.87786259541985,-131.4885496183206,squat
1604240042.6786695,0.6240234375,0.78271484375,-0.0665283203125,-24.83206106870229,-42.56488549618321,-99.7557251908397,squat
1604240042.7186694,0.59228515625,0.709716796875,-0.1436767578125,-20.48854961832061,-31.82442748091603,-107.19847328244275,squat
1604240042.7586694,0.473388671875,0.701416015625,-0.1219482421875,-15.236641221374045,-10.648854961832061,-120.8473282442748,squat
1604240042.7986693,0.427490234375,0.72802734375,-0.0487060546875,-13.267175572519085,-17.19083969465649,-124.0,squat
1604240042.8386693,0.282470703125,0.75048828125,-0.0731201171875,-7.709923664122138,-14.511450381679388,-123.3587786259542,squat
1604240042.8786693,0.2587890625,0.797607421875,-0.1080322265625,-15.908396946564885,-10.854961832061068,-119.2824427480916,squat
1604240042.9186692,0.27978515625,0.80322265625,-0.0648193359375,-4.824427480916031,-26.46564885496183,-102.52671755725191,squat
1604240042.9586692,0.104736328125,0.709716796875,-0.0230712890625,9.648854961832061,-0.13740458015267176,-103.99236641221374,squat
1604240042.9986691,0.030029296875,0.939453125,-0.0667724609375,-2.9236641221374047,-13.13740458015267,-76.85496183206106,squat
1604240043.038669,-0.2025146484375,0.898193359375,0.08642578125,6.358778625954199,-4.030534351145038,-80.19847328244275,squat
1604240043.078669,-0.0601806640625,0.9609375,0.06689453125,-3.816793893129771,14.870229007633588,-77.96946564885496,squat
1604240043.118669,0.197509765625,1.067138671875,-0.0013427734375,-0.4198473282442748,29.81679389312977,-63.55725190839695,squat
1604240043.158669,0.00927734375,0.962890625,-0.0123291015625,-9.580152671755725,36.2442748091603,-45.465648854961835,squat
1604240043.198669,-0.1705322265625,1.00390625,-0.0157470703125,-5.854961832061068,16.236641221374047,-22.69465648854962,squat
1604240043.238669,-0.1414794921875,0.955078125,-0.0281982421875,2.4427480916030535,-8.229007633587786,-1.702290076335878,squat
1604240043.2786689,-0.1021728515625,0.942138671875,-0.0504150390625,-5.450381679389313,-5.519083969465649,0.8015267175572519,squat
1604240043.3186688,-0.0740966796875,0.972412109375,-0.0640869140625,1.0916030534351144,16.595419847328245,-12.709923664122137,squat
1604240043.3586688,-0.1004638671875,0.986083984375,0.029052734375,-5.282442748091603,28.206106870229007,-10.900763358778626,squat
1604240043.3986688,-0.3375244140625,0.999267578125,0.0400390625,2.145038167938931,16.33587786259542,-3.068702290076336,squat
1604240043.4386687,-0.3372802734375,0.9501953125,0.00634765625,2.0916030534351147,-7.755725190839694,7.4961832061068705,squat
1604240043.4786687,-0.2301025390625,0.97998046875,0.00927734375,4.206106870229007,-15.450381679389313,7.702290076335878,squat
1604240043.5186687,-0.1165771484375,0.969970703125,-0.0208740234375,-3.9618320610687023,4.419847328244275,8.908396946564885,squat
1604240043.5586686,-0.2071533203125,0.957275390625,0.012939453125,-0.3435114503816794,2.7404580152671754,11.267175572519085,squat
1604240043.5986686,-0.2047119140625,0.951904296875,-0.0142822265625,3.2900763358778624,1.3282442748091603,11.679389312977099,squat
1604240043.6386685,-0.0972900390625,0.9765625,0.005126953125,11.580152671755725,-0.37404580152671757,15.763358778625955,squat
1604240043.6786685,-0.1207275390625,0.970703125,-0.0164794921875,3.4198473282442747,2.0763358778625953,28.114503816793892,squat
1604240043.7186685,-0.1358642578125,0.935546875,0.005859375,7.465648854961832,-3.33587786259542,35.725190839694655,squat
1604240043.7586684,-0.1221923828125,0.962646484375,0.006103515625,-2.8244274809160306,-9.374045801526718,46.74045801526717,squat
1604240043.7986684,-0.0445556640625,0.95166015625,0.016845703125,-0.7709923664122137,-19.885496183206108,51.3206106870229,squat
1604240043.8386683,0.02294921875,0.96435546875,-0.0030517578125,-19.595419847328245,-2.183206106870229,57.9236641221374,squat
1604240043.8786683,0.078369140625,0.999267578125,0.0185546875,5.305343511450381,1.8549618320610688,50.412213740458014,squat
1604240043.9186683,0.198486328125,0.964111328125,-0.0523681640625,-4.480916030534351,32.12977099236641,49.50381679389313,squat
1604240043.9586682,0.1279296875,0.89013671875,-0.1151123046875,-4.961832061068702,46.847328244274806,60.81679389312977,squat
1604240043.9986682,0.134033203125,0.96337890625,-0.0589599609375,9.786259541984732,-7.114503816793893,55.52671755725191,squat
1604240044.0386682,0.331787109375,1.0439453125,-0.0501708984375,-39.51145038167939,31.366412213740457,80.92366412213741,squat
1604240044.078668,0.369140625,0.78369140625,-0.0792236328125,-4.015267175572519,31.442748091603054,75.03053435114504,squat
1604240044.118668,0.26806640625,0.88818359375,-0.0650634765625,-13.374045801526718,16.46564885496183,63.969465648854964,squat
1604240044.158668,0.30908203125,0.8203125,0.120361328125,-1.8549618320610688,20.396946564885496,80.74809160305344,squat
1604240044.198668,0.2216796875,0.86376953125,0.003662109375,7.297709923664122,15.770992366412214,86.01526717557252,squat
1604240044.238668,0.437255859375,0.958984375,-0.0274658203125,-10.885496183206106,-20.564885496183205,99.61832061068702,squat
1604240044.278668,0.421875,0.728759765625,-0.0115966796875,5.9465648854961835,-46.50381679389313,104.96946564885496,squat
1604240044.318668,0.62841796875,0.8291015625,-0.0885009765625,3.5343511450381677,-43.58015267175573,100.1526717557252,squat
1604240044.3586679,0.74755859375,0.807373046875,-0.0816650390625,-13.595419847328245,13.694656488549619,85.10687022900764,squat
1604240044.3986678,0.6435546875,0.59716796875,-0.0364990234375,1.816793893129771,-10.557251908396946,83.04580152671755,squat
1604240044.4386678,0.76123046875,0.667724609375,-0.0970458984375,2.198473282442748,-6.732824427480916,83.86259541984732,squat
1604240044.4786677,0.864501953125,0.629150390625,-0.0904541015625,1.6717557251908397,8.412213740458014,78.74809160305344,squat
1604240044.5186677,0.804443359375,0.57666015625,-0.0272216796875,8.954198473282442,11.19083969465649,72.95419847328245,squat
1604240044.5586677,0.882568359375,0.58984375,0.017822265625,10.908396946564885,13.351145038167939,71.13740458015268,squat
1604240044.5986676,0.997802734375,0.500732421875,0.0703125,5.3893129770992365,13.251908396946565,69.41984732824427,squat
1604240044.6386676,0.882080078125,0.523681640625,0.046875,4.801526717557252,4.893129770992366,65.61068702290076,squat
1604240044.6786675,1.012939453125,0.452392578125,-0.0025634765625,1.3511450381679388,4.854961832061068,65.7557251908397,squat
1604240044.7186675,1.095703125,0.44775390625,-0.0235595703125,1.381679389312977,20.091603053435115,54.038167938931295,squat
1604240044.7586675,1.1787109375,0.2705078125,0.041259765625,7.396946564885496,18.12213740458015,68.69465648854961,squat
1604240044.7986674,1.120849609375,0.416259765625,0.014404296875,6.5038167938931295,7.633587786259542,50.045801526717554,squat
1604240044.8386674,1.180908203125,0.37060546875,0.048095703125,1.213740458015267,19.03053435114504,31.47328244274809,squat
1604240044.8786674,1.142822265625,0.349365234375,0.076171875,6.709923664122138,-2.6259541984732824,19.442748091603054,squat
1604240044.9186673,1.25927734375,0.43017578125,0.07080078125,4.267175572519084,3.9083969465648853,-2.6106870229007635,squat
1604240044.9586673,1.208740234375,0.438720703125,0.136962890625,3.4427480916030535,-5.519083969465649,-22.572519083969464,squat
1604240044.9986672,1.203125,0.497314453125,0.071044921875,0.9923664122137404,-4.793893129770993,-41.97709923664122,squat
1604240045.0386672,1.24462890625,0.412841796875,0.00390625,-0.030534351145038167,0.7938931297709924,-62.01526717557252,squat
1604240045.0786672,1.099365234375,0.463623046875,0.04931640625,2.969465648854962,-9.396946564885496,-77.6793893129771,squat
1604240045.1186671,1.128662109375,0.521728515625,0.04638671875,0.2366412213740458,-11.320610687022901,-92.5114503816794,squat
1604240045.158667,1.006103515625,0.522705078125,0.069091796875,-2.5267175572519083,-19.259541984732824,-103.17557251908397,squat
1604240045.198667,0.881103515625,0.5556640625,0.0283203125,0.6335877862595419,-36.43511450381679,-106.74809160305344,squat
1604240045.238667,0.815673828125,0.648193359375,-0.0181884765625,-0.648854961832061,-52.229007633587784,-110.08396946564885,squat
1604240045.278667,0.7421875,0.747802734375,-0.0142822265625,-1.6412213740458015,-54.770992366412216,-116.41221374045801,squat
1604240045.318667,0.65380859375,0.786865234375,-0.0836181640625,-19.076335877862597,-40.37404580152672,-97.83206106870229,squat
1604240045.358667,0.5908203125,0.73388671875,-0.1021728515625,-18.541984732824428,-34.98473282442748,-107.00763358778626,squat
1604240045.3986669,0.478271484375,0.730224609375,-0.1534423828125,-19.0381679389313,-19.129770992366414,-121.76335877862596,squat
1604240045.4386668,0.392578125,0.70947265625,-0.0987548828125,-9.450381679389313,-6.419847328244275,-126.38167938931298,squat
1604240045.4786668,0.285400390625,0.77099609375,-0.0369873046875,-2.900763358778626,-9.648854961832061,-123.12977099236642,squat
1604240045.5186667,0.254150390625,0.768798828125,0.015380859375,1.183206106870229,-9.206106870229007,-114.55725190839695,squat
1604240045.5586667,0.22900390625,0.792236328125,-0.0635986328125,-0.9465648854961832,-23.114503816793892,-99.00763358778626,squat
1604240045.5986667,0.23876953125,0.780029296875,0.036865234375,-7.778625954198473,8.816793893129772,-93.08396946564885,squat
1604240045.6386666,0.156982421875,0.918212890625,-0.0963134765625,3.8396946564885495,-3.5572519083969465,-78.87786259541984,squat
1604240045.6786666,0.0712890625,0.940673828125,0.07275390625,3.4732824427480917,8.15267175572519,-69.21374045801527,squat
1604240045.7186666,0.048828125,0.978271484375,-0.0115966796875,0.0,7.5038167938931295,-66.2442748091603,squat
1604240045.7586665,0.055419921875,1.034912109375,-0.0272216796875,-2.1297709923664123,28.82442748091603,-64.90076335877863,squat
1604240045.7986665,0.104736328125,1.0107421875,-0.0645751953125,0.732824427480916,14.618320610687023,-48.05343511450382,squat
1604240045.8386664,-0.0208740234375,1.1279296875,-0.0555419921875,-1.1374045801526718,28.709923664122137,-37.0763358778626,squat
1604240045.8786664,-0.1055908203125,0.977783203125,0.0595703125,-6.717557251908397,15.030534351145038,-21.984732824427482,squat
1604240045.9186664,-0.0877685546875,0.97216796875,-0.0789794921875,-5.786259541984733,9.473282442748092,-13.694656488549619,squat
1604240045.9586663,-0.1712646484375,1.06640625,-0.0489501953125,-6.32824427480916,8.793893129770993,-2.16793893129771,squat
1604240045.9986663,-0.0960693359375,1.00634765625,0.00341796875,9.335877862595419,3.4885496183206106,2.984732824427481,squat
1604240046.0386662,-0.1163330078125,0.966552734375,0.017333984375,-4.541984732824427,-20.85496183206107,11.732824427480915,squat
1604240046.0786662,-0.0679931640625,0.981689453125,-0.0655517578125,-1.3129770992366412,-3.068702290076336,3.0381679389312977,squat
1604240046.1186662,-0.1065673828125,0.964111328125,-0.0570068359375,3.2442748091603053,6.404580152671755,-3.7709923664122136,squat
1604240046.1586661,-0.1846923828125,0.999755859375,0.0,1.0763358778625953,0.15267175572519084,0.10687022900763359,squat
1604240046.198666,-0.1917724609375,0.9560546875,-0.0260009765625,2.572519083969466,-8.404580152671755,7.106870229007634,squat
1604240046.238666,-0.1331787109375,0.982666015625,-0.0438232421875,1.618320610687023,-6.030534351145038,10.923664122137405,squat
1604240046.278666,-0.2135009765625,0.9853515625,0.005126953125,-0.35877862595419846,0.8625954198473282,9.229007633587786,squat
1604240046.318666,-0.2142333984375,0.972412109375,0.0048828125,1.381679389312977,4.038167938931298,5.603053435114504,squat
1604240046.358666,-0.0994873046875,0.96728515625,0.02197265625,8.312977099236642,9.641221374045802,10.114503816793894,squat
1604240046.398666,-0.2269287109375,0.95361328125,0.001220703125,9.099236641221374,2.984732824427481,16.34351145038168,squat
1604240046.4386659,-0.1353759765625,0.95849609375,-0.0150146484375,10.778625954198473,-5.564885496183206,24.603053435114504,squat
1604240046.4786658,-0.0491943359375,0.98388671875,-0.0196533203125,-7.183206106870229,-5.473282442748092,37.55725190839695,squat
1604240046.5186658,0.040283203125,1.011962890625,-0.0262451171875,-7.580152671755725,-3.16793893129771,44.038167938931295,squat
1604240046.5586658,0.108154296875,1.012939453125,0.015380859375,-9.748091603053435,-2.122137404580153,63.52671755725191,squat
1604240046.5986657,0.068359375,0.901123046875,-0.0120849609375,-19.435114503816795,11.618320610687023,61.05343511450382,squat
1604240046.6386657,0.0859375,0.998779296875,-0.0103759765625,0.48854961832061067,22.81679389312977,59.961832061068705,squat
1604240046.6786656,0.227294921875,0.967041015625,-0.0128173828125,-12.679389312977099,15.213740458015268,62.62595419847328,squat
1604240046.7186656,0.325439453125,0.87060546875,-0.0579833984375,-9.366412213740459,43.80152671755725,71.92366412213741,squat
1604240046.7586656,0.201171875,0.9580078125,-0.0523681640625,-11.381679389312977,31.106870229007633,62.7557251908397,squat
1604240046.7986655,0.346923828125,0.926025390625,0.1533203125,-2.366412213740458,7.8396946564885495,83.83969465648855,squat
1604240046.8386655,0.190185546875,0.78759765625,-0.0389404296875,-6.816793893129771,22.916030534351144,89.12213740458016,squat
1604240046.8786654,0.388671875,0.941162109375,0.0126953125,-12.312977099236642,2.519083969465649,89.0,squat
1604240046.9186654,0.28125,0.808837890625,0.09375,20.61832061068702,-12.587786259541986,100.9618320610687,squat
1604240046.9586654,0.512939453125,0.755615234375,-0.2322998046875,5.961832061068702,-6.061068702290076,106.77862595419847,squat
1604240046.9986653,0.423828125,0.840576171875,-0.0240478515625,-9.305343511450381,5.351145038167939,90.61832061068702,squat
1604240047.0386653,0.633544921875,0.766357421875,-0.1292724609375,-1.8625954198473282,-22.00763358778626,91.72519083969466,squat
1604240047.0786653,0.7060546875,0.684326171875,-0.0635986328125,2.2290076335877864,4.572519083969466,86.76335877862596,squat
1604240047.1186652,0.662841796875,0.6513671875,-0.0006103515625,8.541984732824428,6.8320610687022905,86.66412213740458,squat
1604240047.1586652,0.825439453125,0.616943359375,-0.0855712890625,7.6183206106870225,7.320610687022901,85.00763358778626,squat
1604240047.1986651,0.853271484375,0.52587890625,0.01123046875,8.541984732824428,14.992366412213741,84.34351145038168,squat
1604240047.238665,0.95556640625,0.551025390625,-0.0357666015625,3.687022900763359,3.969465648854962,81.54198473282443,squat
1604240047.278665,0.7822265625,0.5380859375,-0.0274658203125,6.694656488549619,17.908396946564885,77.89312977099236,squat
1604240047.318665,0.943359375,0.567626953125,-0.1082763671875,27.12213740458015,91.8473282442748,140.7709923664122,squat
1604240047.358665,0.86767578125,0.51025390625,0.05859375,-1.4961832061068703,9.526717557251908,83.0,squat
1604240047.398665,1.278564453125,0.41650390625,-0.0340576171875,1.4045801526717556,13.251908396946565,72.13740458015268,squat
1604240047.438665,0.830810546875,0.447265625,0.13134765625,0.9389312977099237,5.900763358778626,64.87786259541984,squat
1604240047.4786649,1.33642578125,0.31298828125,0.070556640625,-4.297709923664122,-3.4580152671755724,51.41984732824427,squat
1604240047.5186648,1.11865234375,0.342529296875,0.08251953125,-0.26717557251908397,13.580152671755725,37.56488549618321,squat
1604240047.5586648,1.30517578125,0.28515625,0.055908203125,-1.1450381679389312,6.7251908396946565,13.038167938931299,squat
1604240047.5986648,1.230224609375,0.276123046875,0.061767578125,3.183206106870229,-3.183206106870229,-6.519083969465649,squat
1604240047.6386647,1.230712890625,0.344482421875,0.028564453125,4.6106870229007635,-0.8473282442748091,-27.16793893129771,squat
1604240047.6786647,1.222900390625,0.363037109375,0.09716796875,5.740458015267175,-4.809160305343512,-43.69465648854962,squat
1604240047.7186646,1.2197265625,0.41455078125,0.041015625,5.8320610687022905,-0.4961832061068702,-62.98473282442748,squat
1604240047.7586646,1.140380859375,0.426025390625,0.0556640625,7.0458015267175576,-10.969465648854962,-78.58778625954199,squat
1604240047.7986646,1.087890625,0.5048828125,0.090576171875,2.9923664122137406,-13.251908396946565,-88.79389312977099,squat
1604240047.8386645,1.078857421875,0.4765625,0.034912109375,-4.625954198473282,-23.045801526717558,-95.65648854961832,squat
1604240047.8786645,0.944091796875,0.5,-0.0057373046875,-5.9465648854961835,-31.9618320610687,-111.48091603053435,squat
1604240047.9186645,0.866943359375,0.541259765625,-0.0970458984375,-1.1908396946564885,-41.38167938931298,-114.73282442748092,squat
1604240047.9586644,0.82861328125,0.57666015625,-0.0306396484375,-0.8473282442748091,-50.68702290076336,-118.44274809160305,squat
1604240047.9986644,0.677734375,0.730712890625,-0.0723876953125,-7.450381679389313,-52.25954198473283,-125.04580152671755,squat
1604240048.0386643,0.63720703125,0.8271484375,-0.1727294921875,-19.801526717557252,-29.66412213740458,-103.1526717557252,squat
1604240048.0786643,0.594970703125,0.721923828125,-0.1114501953125,-19.96946564885496,-14.458015267175572,-113.1145038167939,squat
1604240048.1186643,0.3720703125,0.68798828125,-0.0609130859375,-14.954198473282442,-7.603053435114504,-129.81679389312978,squat
1604240048.1586642,0.5068359375,0.72265625,-0.1175537109375,-10.297709923664122,-24.549618320610687,-121.47328244274809,squat
1604240048.1986642,0.367919921875,0.701904296875,-0.0382080078125,-3.8091603053435112,-25.786259541984734,-117.51908396946565,squat
1604240048.2386642,0.354248046875,0.749267578125,-0.0225830078125,-4.022900763358779,-5.549618320610687,-118.02290076335878,squat
1604240048.278664,0.213623046875,0.835205078125,-0.1043701171875,4.557251908396947,-29.03053435114504,-96.59541984732824,squat
1604240048.318664,0.2470703125,0.82958984375,-0.0621337890625,-10.877862595419847,6.984732824427481,-86.55725190839695,squat
1604240048.358664,0.0126953125,0.949951171875,-0.0792236328125,10.908396946564885,-23.419847328244273,-71.14503816793894,squat
1604240048.398664,0.17626953125,0.98583984375,0.0380859375,-0.24427480916030533,-10.32824427480916,-68.74045801526718,squat
1604240048.438664,0.209228515625,1.0654296875,-0.0682373046875,0.0,16.923664122137403,-44.3206106870229,squat
1604240048.478664,0.116455078125,1.008544921875,0.013671875,-11.450381679389313,34.52671755725191,-37.41984732824427,squat
1604240048.518664,-0.0684814453125,0.974365234375,0.015625,1.8396946564885497,7.061068702290076,-27.81679389312977,squat
1604240048.5586638,-0.0118408203125,0.98828125,0.017822265625,-3.099236641221374,-7.67175572519084,-22.34351145038168,squat
1604240048.5986638,-0.0054931640625,0.987060546875,-0.1092529296875,-7.641221374045801,20.106870229007633,-15.702290076335878,squat
1604240048.6386638,-0.2496337890625,0.92529296875,0.009521484375,7.786259541984733,16.50381679389313,-5.557251908396947,squat
1604240048.6786637,-0.2523193359375,1.026611328125,-0.0189208984375,3.633587786259542,-16.64885496183206,6.0534351145038165,squat
1604240048.7186637,-0.2193603515625,0.975341796875,0.03125,-1.1145038167938932,2.236641221374046,3.83206106870229,squat
1604240048.7586637,-0.3626708984375,1.017578125,0.029052734375,7.488549618320611,-0.08396946564885496,-1.297709923664122,squat
1604240048.7986636,-0.1968994140625,0.965576171875,0.01904296875,-0.030534351145038167,10.450381679389313,-2.9389312977099236,squat
1604240048.8386636,-0.1939697265625,0.98681640625,-0.0306396484375,1.916030534351145,0.015267175572519083,1.5419847328244274,squat
1604240048.8786635,-0.1129150390625,0.97021484375,-0.0272216796875,4.572519083969466,1.3282442748091603,3.5343511450381677,squat
1604240048.9186635,-0.1136474609375,0.982421875,-0.0072021484375,2.7709923664122136,15.053435114503817,7.404580152671755,squat
1604240048.9586635,-0.1883544921875,0.9833984375,0.017333984375,5.8320610687022905,10.404580152671755,8.099236641221374,squat
1604240048.9986634,-0.1048583984375,0.94091796875,0.023681640625,12.16030534351145,3.2977099236641223,15.587786259541986,squat
1604240049.0386634,-0.1939697265625,0.974853515625,0.025634765625,-2.4656488549618323,-1.1145038167938932,26.984732824427482,squat
1604240049.0786633,-0.1070556640625,0.94140625,-0.0020751953125,-0.007633587786259542,-3.633587786259542,32.7557251908397,squat
1604240049.1186633,-0.0604248046875,0.98828125,-0.0440673828125,-7.793893129770993,-7.8320610687022905,39.030534351145036,squat
1604240049.1586633,0.104248046875,1.002197265625,-0.0196533203125,-15.82442748091603,-9.946564885496183,45.63358778625954,squat
1604240049.1986632,0.100341796875,1.0263671875,-0.0948486328125,-14.587786259541986,10.67175572519084,46.79389312977099,squat
1604240049.2386632,0.0966796875,0.9521484375,0.038330078125,-1.8549618320610688,-0.6870229007633588,44.229007633587784,squat
1604240049.2786632,0.1513671875,0.955322265625,-0.0863037109375,-14.610687022900763,33.93129770992366,53.48091603053435,squat
1604240049.3186631,0.20556640625,0.961181640625,0.019775390625,1.2671755725190839,4.763358778625954,57.969465648854964,squat
1604240049.358663,0.23974609375,0.919921875,0.004638671875,-0.8931297709923665,25.244274809160306,56.51908396946565,squat
1604240049.398663,0.30615234375,0.9248046875,-0.0516357421875,-13.740458015267176,18.38167938931298,68.81679389312977,squat
1604240049.438663,0.34130859375,0.767822265625,-0.1732177734375,12.15267175572519,11.763358778625955,75.78625954198473,squat
1604240049.478663,0.26806640625,0.89453125,-0.0836181640625,-14.65648854961832,39.85496183206107,75.69465648854961,squat
1604240049.518663,0.34326171875,0.877685546875,0.025146484375,-2.9389312977099236,3.3893129770992365,89.90839694656489,squat
1604240049.558663,0.385498046875,0.78125,-0.0848388671875,4.404580152671755,8.129770992366412,91.58778625954199,squat
1604240049.5986629,0.407958984375,0.890869140625,0.00146484375,-4.778625954198473,-20.412213740458014,95.07633587786259,squat
1604240049.6386628,0.66650390625,0.815185546875,-0.0450439453125,11.488549618320612,-10.816793893129772,100.06106870229007,squat
1604240049.6786628,0.59326171875,0.77197265625,-0.0399169921875,-4.862595419847328,-0.45038167938931295,82.6030534351145,squat
1604240049.7186627,0.625732421875,0.801513671875,-0.0093994140625,2.0610687022900764,-4.5038167938931295,77.83206106870229,squat
1604240049.7586627,0.656982421875,0.73291015625,-0.2034912109375,-1.099236641221374,4.351145038167939,79.26717557251908,squat
1604240049.7986627,0.693115234375,0.59033203125,-0.0623779296875,13.427480916030534,0.45038167938931295,76.35114503816794,squat
1604240049.8386626,0.778076171875,0.6845703125,-0.0142822265625,13.206106870229007,3.3282442748091605,74.83969465648855,squat
1604240049.8786626,0.830322265625,0.5888671875,0.031005859375,-0.21374045801526717,15.129770992366412,76.48091603053435,squat
1604240049.9186625,0.841552734375,0.57421875,0.015380859375,5.312977099236641,9.320610687022901,72.57251908396947,squat
1604240049.9586625,0.8974609375,0.564208984375,-0.0657958984375,2.3893129770992365,7.175572519083969,75.26717557251908,squat
1604240049.9986625,1.022216796875,0.552978515625,-0.0609130859375,-1.2671755725190839,46.0,79.01526717557252,squat
1604240050.0386624,0.84423828125,0.395751953125,0.015869140625,7.458015267175573,10.19083969465649,84.63358778625954,squat
1604240050.0786624,1.131103515625,0.436767578125,0.018310546875,3.648854961832061,-1.9389312977099236,76.0381679389313,squat
1604240050.1186624,0.843017578125,0.462890625,0.0986328125,3.2061068702290076,8.061068702290076,68.03053435114504,squat
1604240050.1586623,1.253662109375,0.323486328125,0.06982421875,3.801526717557252,10.908396946564885,81.63358778625954,squat
1604240050.1986623,1.152587890625,0.335205078125,0.08740234375,-6.519083969465649,2.0381679389312977,44.50381679389313,squat
1604240050.2386622,1.080810546875,0.350341796875,0.073486328125,-3.0610687022900764,7.022900763358779,29.81679389312977,squat
1604240050.2786622,1.2890625,0.25927734375,-0.0032958984375,3.4198473282442747,3.4122137404580153,14.763358778625955,squat
1604240050.3186622,1.195556640625,0.26416015625,0.037841796875,6.67175572519084,-0.3969465648854962,-4.816793893129771,squat
1604240050.3586621,1.309326171875,0.25146484375,0.111083984375,1.4580152671755726,2.16793893129771,-26.31297709923664,squat
1604240050.398662,1.219482421875,0.32373046875,0.006591796875,3.381679389312977,-1.5954198473282444,-47.44274809160305,squat
1604240050.438662,1.272705078125,0.363525390625,0.013916015625,7.129770992366412,-2.633587786259542,-66.0,squat
1604240050.478662,1.115234375,0.389892578125,0.023193359375,10.32824427480916,-7.603053435114504,-78.17557251908397,squat
1604240050.518662,1.156982421875,0.449951171875,0.01708984375,1.1068702290076335,-8.740458015267176,-89.42748091603053,squat
1604240050.558662,0.99072265625,0.51025390625,0.074951171875,2.3587786259541983,-16.519083969465647,-97.07633587786259,squat
1604240050.598662,0.988037109375,0.475830078125,0.0283203125,0.35877862595419846,-30.931297709923665,-102.42748091603053,squat
1604240050.6386619,0.900390625,0.52294921875,-0.0050048828125,-4.435114503816794,-46.396946564885496,-119.97709923664122,squat
1604240050.6786618,0.813720703125,0.586181640625,-0.0128173828125,-8.106870229007633,-47.89312977099237,-118.38931297709924,squat
1604240050.7186618,0.74267578125,0.685546875,-0.0335693359375,-8.648854961832061,-49.47328244274809,-124.49618320610686,squat
1604240050.7586617,0.579833984375,0.662109375,0.00341796875,-27.427480916030536,-72.22137404580153,-134.41221374045801,squat
1604240050.7986617,0.509521484375,0.759765625,-0.0570068359375,-16.702290076335878,-26.099236641221374,-109.47328244274809,squat
1604240050.8386617,0.484619140625,0.732177734375,-0.0667724609375,-15.65648854961832,-16.770992366412212,-111.3969465648855,squat
1604240050.8786616,0.316162109375,0.73974609375,-0.0579833984375,-8.030534351145038,-19.259541984732824,-125.21374045801527,squat
1604240050.9186616,0.28564453125,0.766357421875,0.003662109375,-4.412213740458015,-30.633587786259543,-113.2824427480916,squat
1604240050.9586616,0.32470703125,0.75634765625,-0.0386962890625,4.412213740458015,-23.480916030534353,-115.69465648854961,squat
1604240050.9986615,0.20849609375,0.76708984375,-0.0728759765625,-10.694656488549619,-8.236641221374045,-104.09923664122137,squat
1604240051.0386615,0.208984375,0.8203125,-0.0318603515625,3.3282442748091605,-12.83206106870229,-96.41984732824427,squat
1604240051.0786614,0.2490234375,0.885986328125,-0.0467529296875,3.0763358778625953,0.6717557251908397,-75.38167938931298,squat
1604240051.1186614,0.09326171875,0.9580078125,-0.0142822265625,3.3053435114503817,6.030534351145038,-73.16030534351145,squat
1604240051.1586614,0.002685546875,1.02880859375,0.006591796875,0.7938931297709924,5.312977099236641,-60.847328244274806,squat
1604240051.1986613,0.037841796875,0.98876953125,-0.0177001953125,-1.702290076335878,16.633587786259543,-52.58015267175573,squat
1604240051.2386613,0.1142578125,1.001708984375,-0.0277099609375,0.06870229007633588,24.358778625954198,-37.19083969465649,squat
1604240051.2786613,-0.3165283203125,0.919921875,0.093505859375,3.66412213740458,4.320610687022901,-26.69465648854962,squat
1604240051.3186612,-0.0845947265625,0.96484375,0.04150390625,3.8702290076335877,2.282442748091603,-7.251908396946565,squat
1604240051.3586612,-0.1126708984375,0.95947265625,0.0361328125,-2.8396946564885495,-7.8320610687022905,2.6412213740458017,squat
1604240051.3986611,-0.2330322265625,0.932373046875,0.04296875,10.770992366412214,9.755725190839694,7.534351145038168,squat
1604240051.438661,-0.3370361328125,1.045654296875,0.0068359375,-3.3740458015267176,-16.549618320610687,15.50381679389313,squat
1604240051.478661,-0.1427001953125,0.96337890625,-0.0753173828125,3.633587786259542,-27.61832061068702,6.00763358778626,squat
1604240051.518661,0.015380859375,0.98291015625,-0.0723876953125,10.511450381679388,-1.5114503816793894,-3.0076335877862594,squat
1604240051.558661,-0.0631103515625,0.98876953125,-0.1060791015625,0.4580152671755725,13.549618320610687,0.7404580152671756,squat
1604240051.598661,-0.1402587890625,0.98779296875,-0.0093994140625,1.381679389312977,10.580152671755725,1.618320610687023,squat
1604240051.638661,-0.1680908203125,0.965576171875,0.005126953125,6.259541984732825,0.16793893129770993,5.282442748091603,squat
1604240051.6786609,-0.1207275390625,0.984130859375,0.009033203125,7.717557251908397,3.3053435114503817,13.893129770992367,squat
1604240051.7186608,-0.1629638671875,0.972412109375,0.02783203125,-3.1908396946564888,-0.5954198473282443,21.053435114503817,squat
1604240051.7586608,-0.1177978515625,0.964599609375,-0.0745849609375,-3.1526717557251906,12.236641221374045,28.053435114503817,squat
1604240051.7986608,-0.1397705078125,0.9775390625,-0.0523681640625,-1.0763358778625953,5.847328244274809,35.66412213740458,squat
1604240051.8386607,-0.0738525390625,0.9921875,0.015625,-4.33587786259542,-3.8625954198473282,41.82442748091603,squat
1604240051.8786607,0.048095703125,0.984619140625,0.05224609375,-6.984732824427481,6.152671755725191,43.900763358778626,squat
1604240051.9186606,0.0859375,1.00927734375,-0.0750732421875,-9.022900763358779,23.458015267175572,47.900763358778626,squat
1604240051.9586606,0.154296875,0.95556640625,0.052734375,-15.412213740458014,31.748091603053435,55.66412213740458,squat
1604240051.9986606,0.216552734375,0.905517578125,-0.0137939453125,0.42748091603053434,23.12213740458015,62.786259541984734,squat
1604240052.0386605,0.208740234375,0.869140625,-0.0189208984375,-13.030534351145038,33.56488549618321,74.98473282442748,squat
1604240052.0786605,0.25341796875,0.862060546875,-0.0555419921875,-3.9389312977099236,5.3816793893129775,79.41221374045801,squat
1604240052.1186604,0.38525390625,0.910400390625,-0.1812744140625,8.007633587786259,15.679389312977099,86.55725190839695,squat
1604240052.1586604,0.314208984375,0.77685546875,-0.0201416015625,0.7633587786259542,19.38167938931298,99.45038167938931,squat
1604240052.1986604,0.3798828125,0.8662109375,-0.0469970703125,2.7480916030534353,-5.648854961832061,97.01526717557252,squat
1604240052.2386603,0.585693359375,0.78759765625,0.011962890625,3.49618320610687,19.015267175572518,91.25190839694656,squat
1604240052.2786603,0.39013671875,0.7431640625,0.025146484375,2.1374045801526718,2.3587786259541983,98.72519083969466,squat
1604240052.3186603,0.551025390625,0.810791015625,-0.0311279296875,-15.465648854961833,-5.916030534351145,92.87022900763358,squat
1604240052.3586602,0.61669921875,0.750732421875,0.020263671875,17.801526717557252,-13.618320610687023,84.49618320610686,squat
1604240052.3986602,0.70849609375,0.685302734375,0.00830078125,-2.0763358778625953,0.29770992366412213,86.06870229007633,squat
1604240052.4386601,0.78271484375,0.652099609375,-0.0079345703125,2.2290076335877864,1.4122137404580153,82.61068702290076,squat
1604240052.47866,0.72802734375,0.64697265625,-0.0843505859375,15.129770992366412,5.137404580152672,85.0,squat
1604240052.51866,0.86474609375,0.56640625,-0.0032958984375,10.267175572519085,9.053435114503817,83.63358778625954,squat
1604240052.55866,0.9345703125,0.551025390625,-0.0286865234375,7.320610687022901,21.16793893129771,77.97709923664122,squat
1604240052.59866,0.66748046875,0.858642578125,-0.0008544921875,25.083969465648856,64.0,135.93129770992365,squat
1604240052.63866,1.05322265625,0.451904296875,0.0234375,0.16030534351145037,19.03053435114504,81.22137404580153,squat
1604240052.67866,0.8720703125,0.464111328125,-0.0050048828125,-3.282442748091603,11.954198473282442,75.3587786259542,squat
1604240052.7186599,1.052734375,0.34814453125,0.025390625,-4.870229007633588,14.0,77.07633587786259,squat
1604240052.7586598,1.02587890625,0.358642578125,0.035888671875,-0.5114503816793893,1.8931297709923665,62.19083969465649,squat
1604240052.7986598,1.257080078125,0.311767578125,0.0068359375,-7.305343511450381,11.740458015267176,53.908396946564885,squat
1604240052.8386598,1.062744140625,0.258056640625,0.009765625,-1.3282442748091603,3.3740458015267176,42.18320610687023,squat
1604240052.8786597,1.201171875,0.25,0.033447265625,4.305343511450381,6.290076335877862,28.6793893129771,squat
1604240052.9186597,1.302734375,0.24169921875,0.056884765625,2.801526717557252,3.5877862595419847,7.99236641221374,squat
1604240052.9586596,1.3037109375,0.336181640625,0.06982421875,2.6793893129770994,-0.5725190839694656,-13.83206106870229,squat
1604240052.9986596,1.239013671875,0.3759765625,0.09130859375,2.5572519083969465,2.2595419847328246,-38.23664122137404,squat
1604240053.0386596,1.24267578125,0.369384765625,0.064453125,1.1603053435114503,-2.7099236641221376,-57.38931297709924,squat
1604240053.0786595,1.251708984375,0.396728515625,0.046630859375,5.572519083969466,-4.870229007633588,-78.12977099236642,squat
1604240053.1186595,1.13330078125,0.388916015625,0.086669921875,4.358778625954199,-15.01526717557252,-91.54198473282443,squat
1604240053.1586595,1.116455078125,0.423828125,0.01025390625,1.3893129770992367,-23.51145038167939,-101.4885496183206,squat
1604240053.1986594,1.02978515625,0.406494140625,-0.0228271484375,2.7099236641221376,-27.923664122137403,-112.29770992366412,squat
1604240053.2386594,0.90234375,0.513671875,-0.0198974609375,2.3435114503816794,-25.221374045801525,-109.07633587786259,squat
1604240053.2786593,0.787109375,0.58642578125,-0.0089111328125,-0.816793893129771,-52.20610687022901,-125.70229007633588,squat
1604240053.3186593,0.742431640625,0.724853515625,-0.0577392578125,-4.1603053435114505,-55.61068702290076,-119.20610687022901,squat
1604240053.3586593,0.6728515625,0.760009765625,-0.1153564453125,-13.48091603053435,-44.43511450381679,-129.05343511450383,squat
1604240053.3986592,0.548583984375,0.76904296875,-0.1866455078125,-20.480916030534353,-23.198473282442748,-109.5114503816794,squat
1604240053.4386592,0.535400390625,0.6943359375,-0.0997314453125,-20.129770992366414,-6.404580152671755,-116.66412213740458,squat
1604240053.4786592,0.35546875,0.756103515625,-0.0941162109375,-14.977099236641221,-11.106870229007633,-127.4885496183206,squat
1604240053.518659,0.248291015625,0.662841796875,-0.0211181640625,-0.0916030534351145,-21.900763358778626,-118.74809160305344,squat
1604240053.558659,0.373046875,0.758056640625,0.012939453125,0.0916030534351145,-27.35114503816794,-110.05343511450381,squat
1604240053.598659,0.246337890625,0.847900390625,-0.1361083984375,-18.244274809160306,-25.61832061068702,-89.04580152671755,squat
1604240053.638659,0.20849609375,0.846923828125,-0.0584716796875,3.877862595419847,-23.14503816793893,-83.59541984732824,squat
1604240053.678659,0.13427734375,0.891357421875,-0.1004638671875,6.030534351145038,-34.412213740458014,-68.99236641221374,squat
1604240053.718659,0.22509765625,0.997802734375,-0.0924072265625,-2.1908396946564888,-17.419847328244273,-58.99236641221374,squat
1604240053.758659,0.21240234375,0.957763671875,-0.0804443359375,1.8931297709923665,5.9541984732824424,-57.2442748091603,squat
1604240053.7986588,0.0830078125,0.988037109375,-0.0338134765625,-5.6106870229007635,21.740458015267176,-51.58015267175573,squat
1604240053.8386588,-0.0260009765625,1.0078125,-0.0208740234375,-7.022900763358779,35.05343511450382,-42.0763358778626,squat
1604240053.8786588,-0.2437744140625,0.952392578125,-0.0047607421875,-5.244274809160306,8.50381679389313,-33.50381679389313,squat
1604240053.9186587,-0.0645751953125,0.9638671875,0.01806640625,-0.5801526717557252,-15.786259541984732,-18.50381679389313,squat
1604240053.9586587,-0.0032958984375,0.98193359375,-0.0570068359375,-0.24427480916030533,-2.4122137404580153,-6.793893129770993,squat
1604240053.9986587,-0.0487060546875,0.97998046875,-0.0111083984375,1.6030534351145038,10.618320610687023,-1.9770992366412214,squat
1604240054.0386586,-0.2938232421875,0.968994140625,0.067138671875,3.381679389312977,-9.51908396946565,5.648854961832061,squat
1604240054.0786586,-0.0863037109375,1.0380859375,-0.0181884765625,-1.702290076335878,-5.702290076335878,5.770992366412214,squat
1604240054.1186585,-0.0882568359375,0.984619140625,-0.0113525390625,0.5877862595419847,10.778625954198473,0.29770992366412213,squat
1604240054.1586585,-0.0994873046875,0.992919921875,-0.0352783203125,0.32061068702290074,17.53435114503817,-0.9236641221374046,squat
1604240054.1986585,-0.1495361328125,0.96533203125,-0.0013427734375,4.00763358778626,5.778625954198473,2.763358778625954,squat
1604240054.2386584,-0.0631103515625,0.982177734375,-0.0042724609375,5.206106870229007,5.1603053435114505,6.099236641221374,squat
1604240054.2786584,-0.1107177734375,0.98291015625,0.03466796875,3.198473282442748,16.99236641221374,8.13740458015267,squat
1604240054.3186584,-0.0911865234375,0.971435546875,0.01171875,0.9312977099236641,17.85496183206107,16.572519083969464,squat
1604240054.3586583,-0.1348876953125,0.970947265625,-0.0596923828125,2.595419847328244,-1.1068702290076335,22.549618320610687,squat
1604240054.3986583,-0.0372314453125,0.97314453125,-0.0177001953125,6.106870229007634,-1.748091603053435,30.778625954198475,squat
1604240054.4386582,-0.0172119140625,1.003173828125,-0.0306396484375,-5.679389312977099,0.5190839694656488,39.54961832061068,squat
1604240054.4786582,0.01611328125,0.939697265625,-0.0936279296875,-4.312977099236641,-3.984732824427481,37.62595419847328,squat
1604240054.5186582,0.119384765625,0.999755859375,-0.0040283203125,2.6030534351145036,-7.091603053435114,42.48854961832061,squat
1604240054.5586581,0.186279296875,0.938720703125,-0.0218505859375,-8.610687022900763,14.213740458015268,47.465648854961835,squat
1604240054.598658,0.16259765625,1.001953125,-0.0936279296875,-8.770992366412214,21.053435114503817,52.969465648854964,squat
1604240054.638658,0.16552734375,0.89794921875,-0.0665283203125,5.8320610687022905,15.931297709923664,46.61832061068702,squat
1604240054.678658,0.17822265625,0.9072265625,-0.0687255859375,-12.16793893129771,24.85496183206107,59.38167938931298,squat
1604240054.718658,0.33935546875,0.873291015625,-0.0115966796875,-1.916030534351145,8.381679389312977,61.01526717557252,squat
1604240054.758658,0.245361328125,1.001220703125,-0.0279541015625,-7.076335877862595,18.46564885496183,74.01526717557252,squat
1604240054.798658,0.199462890625,0.775146484375,-0.0003662109375,-8.572519083969466,29.48854961832061,71.29770992366412,squat
1604240054.8386579,0.326904296875,0.913818359375,0.103759765625,-8.32824427480916,8.488549618320612,80.83969465648855,squat
1604240054.8786578,0.340087890625,0.939453125,0.008544921875,1.3587786259541985,-2.404580152671756,90.83206106870229,squat
1604240054.9186578,0.443359375,0.78369140625,0.020263671875,2.381679389312977,7.145038167938932,86.5114503816794,squat
1604240054.9586577,0.418212890625,0.8212890625,0.03564453125,-6.687022900763359,-24.229007633587788,94.25954198473282,squat
1604240054.9986577,0.5859375,0.692626953125,-0.0252685546875,11.618320610687023,-2.5801526717557253,74.59541984732824,squat
1604240055.0386577,0.6005859375,0.77294921875,0.022705078125,0.16030534351145037,-5.679389312977099,78.57251908396947,squat
1604240055.0786576,0.67919921875,0.70751953125,-0.0606689453125,12.580152671755725,-8.251908396946565,76.95419847328245,squat
1604240055.1186576,0.72314453125,0.689697265625,-0.0323486328125,5.6183206106870225,12.641221374045802,76.12977099236642,squat
1604240055.1586576,0.74853515625,0.638427734375,0.039306640625,12.374045801526718,-1.5725190839694656,79.6030534351145,squat
1604240055.1986575,0.8525390625,0.558349609375,-0.0821533203125,4.519083969465649,4.0534351145038165,81.68702290076335,squat
1604240055.2386575,0.77099609375,0.53662109375,0.04736328125,0.5419847328244275,16.557251908396946,79.25954198473282,squat
1604240055.2786574,0.9951171875,0.480712890625,-0.0694580078125,22.14503816793893,52.603053435114504,105.0,squat
1604240055.3186574,0.955078125,0.486083984375,0.119384765625,9.427480916030534,17.412213740458014,82.10687022900764,squat
1604240055.3586574,0.92822265625,0.4677734375,0.03125,2.816793893129771,9.19083969465649,82.6793893129771,squat
1604240055.3986573,1.121337890625,0.408935546875,-0.0125732421875,-6.32824427480916,33.9236641221374,76.73282442748092,squat
1604240055.4386573,0.917236328125,0.40478515625,0.044189453125,-5.458015267175573,-2.0,69.3206106870229,squat
1604240055.4786572,1.079833984375,0.408935546875,0.12451171875,-6.129770992366412,9.351145038167939,62.6793893129771,squat
1604240055.5186572,1.274169921875,0.260986328125,0.054931640625,-5.129770992366412,-3.6793893129770994,51.732824427480914,squat
1604240055.5586572,1.1767578125,0.272216796875,0.085205078125,2.0229007633587788,6.038167938931298,31.19083969465649,squat
1604240055.5986571,1.273681640625,0.2451171875,0.02978515625,1.2900763358778626,1.7709923664122138,12.534351145038167,squat
1604240055.638657,1.26708984375,0.353271484375,0.0625,5.32824427480916,-1.3206106870229009,-11.541984732824428,squat
1604240055.678657,1.29150390625,0.385009765625,0.0947265625,6.427480916030534,-2.9083969465648853,-34.52671755725191,squat
1604240055.718657,1.254638671875,0.35546875,0.077392578125,8.305343511450381,-7.687022900763359,-55.80916030534351,squat
1604240055.758657,1.122802734375,0.392822265625,0.045654296875,12.778625954198473,-9.49618320610687,-72.38931297709924,squat
1604240055.798657,1.12060546875,0.419677734375,0.09326171875,9.48091603053435,-11.854961832061068,-86.47328244274809,squat
1604240055.838657,1.07373046875,0.42041015625,0.037841796875,4.786259541984733,-20.137404580152673,-97.20610687022901,squat
1604240055.8786569,0.992431640625,0.373046875,-0.0296630859375,5.6106870229007635,-16.412213740458014,-102.54961832061069,squat
1604240055.9186568,0.879150390625,0.463623046875,0.025146484375,3.198473282442748,-22.38167938931298,-100.96946564885496,squat
1604240055.9586568,0.839111328125,0.557861328125,0.022705078125,1.5572519083969465,-47.49618320610687,-111.54961832061069,squat
1604240055.9986567,0.8046875,0.61279296875,-0.0496826171875,-5.374045801526718,-45.099236641221374,-106.87786259541984,squat
1604240056.0386567,0.76025390625,0.6689453125,-0.0528564453125,-3.763358778625954,-40.83206106870229,-111.34351145038168,squat
1604240056.0786567,0.604736328125,0.75439453125,-0.0731201171875,-11.290076335877863,-33.67175572519084,-118.47328244274809,squat
1604240056.1186566,0.588134765625,0.778564453125,-0.1009521484375,-18.267175572519083,-24.977099236641223,-95.0,squat
1604240056.1586566,0.469970703125,0.722900390625,-0.1041259765625,-14.145038167938932,-7.793893129770993,-112.69465648854961,squat
1604240056.1986566,0.426513671875,0.75390625,-0.0797119140625,-8.297709923664122,-18.30534351145038,-111.51908396946565,squat
1604240056.2386565,0.357666015625,0.7314453125,-0.0335693359375,-6.564885496183206,6.419847328244275,-116.12213740458016,squat
1604240056.2786565,0.200439453125,0.790283203125,-0.0181884765625,-2.045801526717557,-19.0381679389313,-103.74045801526718,squat
1604240056.3186564,0.312255859375,0.836669921875,-0.0469970703125,-9.679389312977099,-1.5114503816793894,-94.87786259541984,squat
1604240056.3586564,0.27001953125,0.866455078125,-0.0948486328125,0.35877862595419846,-4.625954198473282,-78.56488549618321,squat
1604240056.3986564,0.140869140625,0.91650390625,-0.0894775390625,-0.549618320610687,-2.595419847328244,-77.49618320610686,squat
1604240056.4386563,0.115478515625,0.952392578125,0.05126953125,-0.22900763358778625,-9.82442748091603,-67.62595419847328,squat
1604240056.4786563,0.087646484375,1.001708984375,-0.0655517578125,8.335877862595419,-21.198473282442748,-56.29007633587786,squat
1604240056.5186563,0.11669921875,1.0068359375,-0.0113525390625,2.312977099236641,-8.526717557251908,-51.969465648854964,squat
1604240056.5586562,0.1328125,0.984619140625,-0.0892333984375,-14.32824427480916,42.221374045801525,-48.29770992366412,squat
1604240056.5986562,-0.0372314453125,1.00390625,-0.0723876953125,2.267175572519084,9.49618320610687,-37.35114503816794,squat
1604240056.6386561,-0.0406494140625,0.989990234375,0.0224609375,0.8091603053435115,17.68702290076336,-34.038167938931295,squat
1604240056.678656,-0.0941162109375,0.958740234375,-0.0330810546875,-4.587786259541985,15.396946564885496,-18.587786259541986,squat
1604240056.718656,-0.1947021484375,0.9580078125,-0.0230712890625,1.4198473282442747,5.114503816793893,-9.061068702290076,squat
1604240056.758656,-0.2161865234375,0.9638671875,0.0390625,4.519083969465649,-5.702290076335878,1.0,squat
1604240056.798656,-0.2203369140625,1.003662109375,-0.0345458984375,0.4122137404580153,-14.564885496183207,10.0,squat
1604240056.838656,-0.1610107421875,0.9755859375,-0.0440673828125,0.9083969465648855,3.4198473282442747,-0.3435114503816794,squat
1604240056.878656,-0.1812744140625,0.970703125,-0.0711669921875,2.3282442748091605,16.862595419847327,-7.6183206106870225,squat
1604240056.9186559,-0.1942138671875,0.974365234375,0.01123046875,2.519083969465649,14.404580152671755,-7.778625954198473,squat
1604240056.9586558,-0.1649169921875,0.976318359375,-0.0023193359375,3.7480916030534353,10.442748091603054,-1.16793893129771,squat
1604240056.9986558,-0.1265869140625,0.961669921875,-0.0430908203125,8.702290076335878,11.755725190839694,3.1603053435114505,squat
1604240057.0386558,-0.2225341796875,0.97607421875,-0.0740966796875,6.770992366412214,7.290076335877862,6.3816793893129775,squat
1604240057.0786557,-0.1824951171875,0.986083984375,-0.0238037109375,5.633587786259542,3.3969465648854964,12.17557251908397,squat
1604240057.1186557,-0.1871337890625,0.980224609375,-0.0506591796875,-0.5267175572519084,-1.465648854961832,17.557251908396946,squat
1604240057.1586556,-0.1419677734375,0.947509765625,-0.0255126953125,-0.5114503816793893,-5.374045801526718,23.65648854961832,squat
1604240057.1986556,-0.0841064453125,0.968017578125,-0.0321044921875,-6.32824427480916,-14.946564885496183,31.893129770992367,squat
1604240057.2386556,-0.0311279296875,0.99853515625,-0.0098876953125,-16.083969465648856,-22.00763358778626,45.6412213740458,squat
1604240057.2786555,0.072265625,1.05517578125,-0.0885009765625,-13.50381679389313,-17.0,57.13740458015267,squat
1604240057.3186555,0.08740234375,0.923828125,-0.0477294921875,-5.9541984732824424,-3.030534351145038,57.786259541984734,squat
1604240057.3586555,0.17626953125,0.99462890625,-0.0535888671875,1.9465648854961832,8.580152671755725,52.49618320610687,squat
1604240057.3986554,0.216796875,0.88134765625,0.00146484375,-11.0,24.84732824427481,59.13740458015267,squat
1604240057.4386554,0.275634765625,1.016357421875,0.083251953125,-1.9618320610687023,19.954198473282442,65.29770992366412,squat
1604240057.4786553,0.27099609375,0.88330078125,-0.1170654296875,-11.80916030534351,18.198473282442748,77.05343511450381,squat
1604240057.5186553,0.2060546875,0.82666015625,-0.0482177734375,-17.442748091603054,3.6412213740458017,81.40458015267176,squat
1604240057.5586553,0.326416015625,0.891845703125,-0.1910400390625,8.48091603053435,21.66412213740458,83.94656488549619,squat
1604240057.5986552,0.254638671875,0.89599609375,0.06396484375,4.030534351145038,27.61832061068702,79.38931297709924,squat
1604240057.6386552,0.295166015625,0.927978515625,-0.0010986328125,-9.900763358778626,-15.32824427480916,98.47328244274809,squat
1604240057.6786551,0.30126953125,0.8828125,-0.1143798828125,0.816793893129771,-19.412213740458014,96.56488549618321,squat
1604240057.718655,0.402587890625,0.784912109375,-0.0135498046875,25.106870229007633,4.1603053435114505,78.20610687022901,squat
1604240057.758655,0.587646484375,0.883056640625,-0.0172119140625,-4.465648854961832,-25.946564885496183,84.74045801526718,squat
1604240057.798655,0.70263671875,0.5986328125,0.0078125,10.427480916030534,-2.8091603053435112,75.87022900763358,squat
1604240057.838655,0.716796875,0.75732421875,-0.0330810546875,2.5267175572519083,3.4198473282442747,77.00763358778626,squat
1604240057.878655,0.663818359375,0.698486328125,-0.1243896484375,2.4580152671755724,-4.229007633587786,78.97709923664122,squat
1604240057.918655,0.731201171875,0.580810546875,-0.0472412109375,12.145038167938932,9.595419847328245,74.34351145038168,squat
1604240057.9586549,0.809814453125,0.6455078125,-0.0257568359375,10.17557251908397,20.72519083969466,74.47328244274809,squat
1604240057.9986548,1.095458984375,0.29736328125,0.074951171875,12.282442748091603,50.786259541984734,95.44274809160305,squat
1604240058.0386548,0.843994140625,0.5498046875,0.063232421875,5.564885496183206,20.206106870229007,81.70229007633588,squat
1604240058.0786548,1.01904296875,0.427978515625,0.01123046875,-1.8396946564885497,12.465648854961833,83.68702290076335,squat
1604240058.1186547,0.865478515625,0.412841796875,0.044189453125,-4.450381679389313,27.0381679389313,87.1526717557252,squat
1604240058.1586547,1.013427734375,0.44287109375,0.000244140625,-0.7709923664122137,-8.305343511450381,72.38931297709924,squat
1604240058.1986547,1.04736328125,0.43798828125,0.121826171875,-2.954198473282443,17.748091603053435,65.9618320610687,squat
1604240058.2386546,1.190185546875,0.367919921875,0.059814453125,-7.236641221374046,-3.6564885496183206,59.86259541984733,squat
1604240058.2786546,1.00537109375,0.302001953125,0.106201171875,-6.152671755725191,11.206106870229007,47.51145038167939,squat
1604240058.3186545,1.20068359375,0.245849609375,0.010498046875,-1.3893129770992367,-0.37404580152671757,39.06870229007634,squat
1604240058.3586545,1.154052734375,0.26953125,0.039306640625,2.5419847328244276,2.946564885496183,19.076335877862597,squat
1604240058.3986545,1.220703125,0.30517578125,0.09716796875,-1.8931297709923665,0.1297709923664122,2.6946564885496183,squat
1604240058.4386544,1.22802734375,0.36474609375,0.13818359375,-0.5343511450381679,-4.206106870229007,-22.458015267175572,squat
1604240058.4786544,1.23974609375,0.38134765625,0.098876953125,-3.786259541984733,-0.0916030534351145,-41.29770992366412,squat
1604240058.5186543,1.249755859375,0.306640625,0.037841796875,-1.0,-2.2290076335877864,-58.83206106870229,squat
1604240058.5586543,1.1513671875,0.401123046875,0.008544921875,7.473282442748092,-7.442748091603053,-76.05343511450381,squat
1604240058.5986543,1.123046875,0.364990234375,0.040771484375,2.633587786259542,-13.854961832061068,-84.03053435114504,squat
1604240058.6386542,1.101318359375,0.455810546875,0.061279296875,-2.0610687022900764,-17.801526717557252,-94.7175572519084,squat
1604240058.6786542,1.020751953125,0.407958984375,0.031982421875,-0.648854961832061,-30.870229007633586,-101.16030534351145,squat
1604240058.7186542,0.912353515625,0.48779296875,-0.0225830078125,-4.175572519083969,-35.80916030534351,-104.93893129770993,squat
1604240058.758654,0.85986328125,0.56982421875,-0.0760498046875,-3.0229007633587788,-42.396946564885496,-110.04580152671755,squat
1604240058.798654,0.767333984375,0.656982421875,-0.1024169921875,3.3053435114503817,-53.16030534351145,-130.82442748091603,squat
1604240058.838654,0.68212890625,0.777099609375,-0.0909423828125,-11.50381679389313,-34.42748091603053,-129.25190839694656,squat
1604240058.878654,0.552490234375,0.765625,-0.0782470703125,-17.236641221374047,-33.11450381679389,-139.26717557251908,squat
1604240058.918654,0.4755859375,0.753662109375,-0.1016845703125,-17.358778625954198,-14.610687022900763,-115.45038167938931,squat
1604240058.958654,0.34619140625,0.7421875,-0.0660400390625,-8.557251908396946,-18.49618320610687,-119.94656488549619,squat
1604240058.998654,0.397216796875,0.72216796875,-0.0638427734375,-6.404580152671755,-18.045801526717558,-121.10687022900764,squat
1604240059.0386539,0.30029296875,0.74169921875,-0.0767822265625,5.450381679389313,-24.72519083969466,-111.1526717557252,squat
1604240059.0786538,0.278564453125,0.773681640625,-0.0245361328125,-7.740458015267175,-15.320610687022901,-102.07633587786259,squat
1604240059.1186538,0.30615234375,0.82666015625,-0.1663818359375,6.068702290076335,-16.519083969465647,-92.36641221374046,squat
1604240059.1586537,0.169921875,0.90869140625,-0.0384521484375,-1.7557251908396947,3.595419847328244,-83.57251908396947,squat
1604240059.1986537,0.104736328125,0.936767578125,0.028076171875,-0.7251908396946565,-8.229007633587786,-76.26717557251908,squat
1604240059.2386537,0.1240234375,1.0126953125,0.07666015625,0.06870229007633588,0.13740458015267176,-69.96946564885496,squat
1604240059.2786536,0.072998046875,1.001708984375,0.005859375,-2.2748091603053435,11.717557251908397,-63.16030534351145,squat
1604240059.3186536,0.103515625,0.982177734375,0.0126953125,-10.13740458015267,26.03053435114504,-47.94656488549618,squat
1604240059.3586535,-0.0093994140625,0.92529296875,0.021240234375,-7.32824427480916,30.00763358778626,-32.961832061068705,squat
1604240059.3986535,-0.1759033203125,0.978759765625,-0.0347900390625,-5.687022900763359,9.511450381679388,-8.84732824427481,squat
1604240059.4386535,-0.1993408203125,0.9462890625,-0.0169677734375,3.0610687022900764,-7.404580152671755,-3.5114503816793894,squat
1604240059.4786534,-0.0721435546875,0.942138671875,-0.0064697265625,5.1679389312977095,-6.175572519083969,0.9770992366412213,squat
1604240059.5186534,-0.1151123046875,0.983154296875,-0.0511474609375,-6.015267175572519,8.106870229007633,0.022900763358778626,squat
1604240059.5586534,-0.2608642578125,0.950927734375,-0.0281982421875,0.2366412213740458,13.022900763358779,-1.4198473282442747,squat
1604240059.5986533,-0.2845458984375,0.97265625,-0.0135498046875,2.1755725190839694,10.83206106870229,-1.534351145038168,squat
1604240059.6386533,-0.2105712890625,0.97509765625,-0.0177001953125,3.8244274809160306,12.51908396946565,0.48091603053435117,squat
1604240059.6786532,-0.1949462890625,0.991455078125,-0.0960693359375,-2.2290076335877864,14.511450381679388,7.229007633587786,squat
1604240059.7186532,-0.2432861328125,0.977294921875,-0.0325927734375,1.4045801526717556,10.82442748091603,10.557251908396946,squat
1604240059.7586532,-0.1710205078125,0.9736328125,-0.0465087890625,2.4732824427480917,5.3816793893129775,15.076335877862595,squat
1604240059.7986531,-0.1834716796875,0.96240234375,-0.0350341796875,-0.4961832061068702,5.00763358778626,19.022900763358777,squat
1604240059.838653,-0.0718994140625,0.962158203125,-0.0115966796875,2.8244274809160306,-1.3053435114503817,24.00763358778626,squat
1604240059.878653,-0.1038818359375,0.967529296875,0.0205078125,-2.687022900763359,-14.34351145038168,32.82442748091603,squat
1604240059.918653,-0.0052490234375,0.95654296875,-0.0294189453125,-8.213740458015268,-27.908396946564885,38.93129770992366,squat
1604240059.958653,0.09130859375,1.01416015625,-0.0291748046875,-6.419847328244275,-12.381679389312977,52.541984732824424,squat
1604240059.998653,0.2021484375,0.943359375,0.00048828125,-6.396946564885496,9.038167938931299,60.58015267175573,squat
1604240060.038653,0.102294921875,0.94775390625,-0.0638427734375,-9.65648854961832,2.954198473282443,70.46564885496183,squat
1604240060.0786529,0.173583984375,0.956787109375,-0.0452880859375,-1.015267175572519,6.5038167938931295,63.18320610687023,squat
1604240060.1186528,0.318603515625,0.853515625,-0.0316162109375,-6.244274809160306,35.33587786259542,77.99236641221374,squat
1604240060.1586528,0.22314453125,0.93896484375,-0.0909423828125,-6.862595419847328,5.106870229007634,72.29770992366412,squat
1604240060.1986527,0.41357421875,0.85498046875,0.106201171875,-2.6717557251908395,-0.732824427480916,79.63358778625954,squat
1604240060.2386527,0.27490234375,0.81591796875,0.048095703125,-6.854961832061068,43.152671755725194,85.7557251908397,squat
1604240060.2786527,0.26904296875,0.961669921875,-0.0804443359375,2.0229007633587788,-5.267175572519084,82.90076335877863,squat
1604240060.3186526,0.383056640625,0.816650390625,-0.0101318359375,-5.541984732824427,6.549618320610687,97.61068702290076,squat
1604240060.3586526,0.46923828125,0.82958984375,0.01806640625,0.1984732824427481,-12.244274809160306,102.13740458015268,squat
1604240060.3986526,0.502197265625,0.8818359375,-0.1800537109375,2.816793893129771,-31.15267175572519,93.37404580152672,squat
1604240060.4386525,0.653564453125,0.6796875,-0.0238037109375,0.8549618320610687,6.206106870229007,86.78625954198473,squat
1604240060.4786525,0.67041015625,0.718505859375,-0.0499267578125,10.274809160305344,-1.16793893129771,87.74809160305344,squat
1604240060.5186524,0.686279296875,0.705078125,-0.0399169921875,2.5419847328244276,43.099236641221374,114.73282442748092,squat
1604240060.5586524,0.69384765625,0.666259765625,-0.0516357421875,14.870229007633588,0.21374045801526717,99.48091603053435,squat
1604240060.5986524,0.8193359375,0.5986328125,-0.0145263671875,12.099236641221374,12.145038167938932,98.97709923664122,squat
1604240060.6386523,0.9755859375,0.652587890625,-0.0184326171875,0.5572519083969466,38.17557251908397,110.25190839694656,squat
1604240060.6786523,1.01953125,0.357666015625,0.0458984375,2.3282442748091605,23.19083969465649,86.90839694656489,squat
1604240060.7186522,0.980712890625,0.458251953125,0.030029296875,11.450381679389313,4.961832061068702,76.65648854961832,squat
1604240060.7586522,1.1259765625,0.42529296875,0.135498046875,1.7633587786259541,18.290076335877863,71.74045801526718,squat
1604240060.7986522,0.944091796875,0.481689453125,0.08935546875,-2.33587786259542,11.404580152671755,65.6030534351145,squat
1604240060.8386521,1.1494140625,0.303955078125,0.05029296875,-13.419847328244275,6.175572519083969,61.10687022900763,squat
1604240060.878652,1.0205078125,0.3271484375,0.0556640625,-14.244274809160306,6.206106870229007,53.70992366412214,squat
1604240060.918652,1.216796875,0.2568359375,0.0478515625,-2.114503816793893,12.34351145038168,36.51908396946565,squat
1604240060.958652,1.155517578125,0.225341796875,0.119384765625,5.244274809160306,-25.53435114503817,12.442748091603054,squat
1604240060.998652,1.213623046875,0.25732421875,0.10595703125,6.015267175572519,3.030534351145038,-1.1526717557251909,squat
1604240061.038652,1.283447265625,0.31982421875,0.129638671875,3.519083969465649,-4.129770992366412,-20.80916030534351,squat
1604240061.078652,1.267578125,0.40087890625,0.10546875,1.8702290076335877,-6.374045801526718,-40.770992366412216,squat
1604240061.1186519,1.126708984375,0.3759765625,0.089111328125,5.984732824427481,-10.389312977099237,-60.29007633587786,squat
1604240061.1586518,1.21240234375,0.334716796875,0.01123046875,-1.9236641221374047,-1.2900763358778626,-74.55725190839695,squat
1604240061.1986518,1.069580078125,0.373779296875,0.072265625,3.0229007633587788,-17.786259541984734,-88.33587786259542,squat
1604240061.2386518,1.151611328125,0.416259765625,0.03857421875,3.0839694656488548,-26.366412213740457,-98.8854961832061,squat
1604240061.2786517,0.9560546875,0.445068359375,0.014404296875,2.3740458015267176,-35.06870229007634,-100.90076335877863,squat
1604240061.3186517,0.925048828125,0.476806640625,-0.0264892578125,-0.05343511450381679,-40.19847328244275,-105.87022900763358,squat
1604240061.3586516,0.8759765625,0.595947265625,-0.0648193359375,-0.366412213740458,-41.93893129770992,-112.83206106870229,squat
1604240061.3986516,0.760009765625,0.658203125,-0.1263427734375,-2.9389312977099236,-41.099236641221374,-122.97709923664122,squat
1604240061.4386516,0.647705078125,0.747802734375,-0.1527099609375,-7.633587786259542,-25.587786259541986,-137.87022900763358,squat
1604240061.4786515,0.525390625,0.796875,-0.1082763671875,-10.526717557251908,-23.564885496183205,-133.8320610687023,squat
1604240061.5186515,0.515380859375,0.66162109375,-0.0394287109375,-22.251908396946565,-37.29007633587786,-131.793893129771,squat
1604240061.5586514,0.365966796875,0.735107421875,-0.0008544921875,-2.786259541984733,-25.801526717557252,-125.49618320610686,squat
1604240061.5986514,0.325927734375,0.689208984375,-0.1060791015625,-7.7251908396946565,-16.076335877862597,-124.45038167938931,squat
1604240061.6386514,0.306640625,0.752197265625,-0.1234130859375,-2.8702290076335877,-25.900763358778626,-122.3587786259542,squat
1604240061.6786513,0.23974609375,0.74951171875,-0.1199951171875,10.549618320610687,-21.083969465648856,-111.58778625954199,squat
1604240061.7186513,0.230712890625,0.861083984375,-0.0889892578125,-5.175572519083969,-8.061068702290076,-94.21374045801527,squat
1604240061.7586513,0.249267578125,0.934814453125,-0.0457763671875,6.32824427480916,-4.534351145038168,-87.21374045801527,squat
1604240061.7986512,0.127685546875,0.976806640625,-0.0177001953125,-4.549618320610687,2.0076335877862594,-70.09160305343511,squat
1604240061.8386512,0.08740234375,1.067626953125,-0.0089111328125,-3.7480916030534353,21.33587786259542,-57.6412213740458,squat
1604240061.8786511,0.068115234375,1.04296875,-0.0418701171875,-7.580152671755725,11.007633587786259,-38.954198473282446,squat
1604240061.918651,-0.0333251953125,0.929443359375,-0.0404052734375,-4.366412213740458,23.885496183206108,-26.87786259541985,squat
1604240061.958651,-0.0838623046875,0.950927734375,-0.0211181640625,-1.015267175572519,4.603053435114504,-10.748091603053435,squat
1604240061.998651,-0.1593017578125,0.98583984375,-0.0455322265625,-2.6793893129770994,-4.694656488549619,-8.0,squat
1604240062.038651,-0.1234130859375,0.967529296875,-0.0223388671875,0.732824427480916,9.282442748091603,-11.412213740458014,squat
1604240062.078651,-0.1751708984375,0.986083984375,-0.0631103515625,0.6259541984732825,18.083969465648856,-12.419847328244275,squat
1604240062.118651,-0.2288818359375,0.97265625,0.02197265625,0.8091603053435115,4.8396946564885495,-5.931297709923665,squat
1604240062.1586509,-0.1932373046875,0.98828125,-0.0225830078125,5.213740458015267,-1.6488549618320612,-1.9923664122137406,squat
1604240062.1986508,-0.2066650390625,0.958984375,-0.0426025390625,4.6183206106870225,0.37404580152671757,-1.3206106870229009,squat
1604240062.2386508,-0.1265869140625,0.980712890625,-0.0379638671875,7.763358778625954,4.740458015267175,0.7633587786259542,squat
1604240062.2786508,-0.1788330078125,0.961181640625,-0.0350341796875,3.5343511450381677,4.763358778625954,3.2519083969465647,squat
1604240062.3186507,-0.1475830078125,0.97900390625,-0.0640869140625,4.1679389312977095,3.8396946564885495,9.450381679389313,squat
1604240062.3586507,-0.1690673828125,0.959716796875,-0.0364990234375,4.870229007633588,5.030534351145038,11.763358778625955,squat
1604240062.3986506,-0.1771240234375,0.969482421875,-0.0377197265625,1.3282442748091603,1.8473282442748091,15.80916030534351,squat
1604240062.4386506,-0.1107177734375,0.991455078125,-0.0516357421875,-0.1450381679389313,3.450381679389313,22.16793893129771,squat
1604240062.4786506,-0.1263427734375,0.966796875,-0.0113525390625,1.16793893129771,-8.748091603053435,28.80916030534351,squat
1604240062.5186505,-0.0745849609375,0.983642578125,-0.0277099609375,-15.557251908396946,-16.12213740458015,41.47328244274809,squat
1604240062.5586505,-0.0350341796875,0.994384765625,-0.0308837890625,-3.183206106870229,-21.099236641221374,43.35114503816794,squat
1604240062.5986505,0.139892578125,0.97265625,-0.0860595703125,-3.6030534351145036,3.6412213740458017,50.396946564885496,squat
1604240062.6386504,0.160400390625,0.943115234375,-0.1478271484375,-16.938931297709924,29.862595419847327,60.23664122137404,squat
1604240062.6786504,0.244384765625,0.936279296875,-0.0611572265625,-9.687022900763358,37.0,64.55725190839695,squat
1604240062.7186503,0.185302734375,0.924072265625,-0.0240478515625,-5.67175572519084,26.435114503816795,74.22900763358778,squat
1604240062.7586503,0.224609375,0.792236328125,-0.0328369140625,-8.145038167938932,12.511450381679388,84.94656488549619,squat
1604240062.7986503,0.376220703125,0.90966796875,-0.1409912109375,-12.725190839694656,2.114503816793893,88.43511450381679,squat
1604240062.8386502,0.17822265625,0.911376953125,-0.0662841796875,-3.1603053435114505,28.755725190839694,92.85496183206106,squat
1604240062.8786502,0.377685546875,0.80029296875,-0.0496826171875,-12.526717557251908,47.16030534351145,96.33587786259542,squat
1604240062.9186502,0.293212890625,0.938720703125,-0.0001220703125,-1.8702290076335877,17.419847328244273,89.6030534351145,squat
1604240062.95865,0.396728515625,0.848388671875,0.117431640625,7.427480916030534,-19.984732824427482,97.7175572519084,squat
1604240062.99865,0.6416015625,0.741455078125,-0.0352783203125,-7.259541984732825,10.587786259541986,103.06106870229007,squat
1604240063.03865,0.628662109375,0.81591796875,0.0341796875,-2.015267175572519,-3.366412213740458,91.79389312977099,squat
1604240063.07865,0.653564453125,0.772705078125,-0.0101318359375,-3.8702290076335877,-12.106870229007633,98.99236641221374,squat
1604240063.11865,0.7568359375,0.537353515625,-0.0255126953125,7.122137404580153,4.740458015267175,98.22137404580153,squat
1604240063.15865,0.697021484375,0.69287109375,-0.0780029296875,7.450381679389313,-7.648854961832061,93.7557251908397,squat
1604240063.19865,0.9248046875,0.669677734375,-0.0623779296875,5.473282442748092,20.9618320610687,90.74809160305344,squat
1604240063.2386498,0.67578125,0.603515625,0.00146484375,3.564885496183206,8.083969465648854,86.48091603053435,squat
1604240063.2786498,1.1103515625,0.302978515625,0.064208984375,7.6106870229007635,12.076335877862595,78.1526717557252,squat
1604240063.3186498,0.99853515625,0.4375,0.109130859375,10.045801526717558,16.564885496183205,71.89312977099236,squat
1604240063.3586497,1.05810546875,0.39794921875,0.085205078125,2.2748091603053435,12.206106870229007,70.86259541984732,squat
1604240063.3986497,1.0185546875,0.43896484375,0.111083984375,4.6106870229007635,10.389312977099237,63.85496183206107,squat
1604240063.4386497,1.112548828125,0.378173828125,0.11474609375,-33.396946564885496,-236.44274809160305,80.68702290076335,squat
1604240063.4786496,1.05029296875,0.33056640625,0.051025390625,-5.755725190839694,13.312977099236642,41.81679389312977,squat
1604240063.5186496,1.10595703125,0.309326171875,0.025146484375,3.7938931297709924,-9.282442748091603,31.64885496183206,squat
1604240063.5586495,1.258544921875,0.2724609375,0.010009765625,1.282442748091603,9.82442748091603,14.114503816793894,squat
1604240063.5986495,1.140625,0.31201171875,0.091796875,6.969465648854962,-0.40458015267175573,-2.3740458015267176,squat
1604240063.6386495,1.21484375,0.382080078125,0.126953125,5.022900763358779,-0.7862595419847328,-18.580152671755727,squat
1604240063.6786494,1.2607421875,0.439697265625,0.090087890625,-1.7786259541984732,-10.755725190839694,-36.70229007633588,squat
1604240063.7186494,1.219970703125,0.3349609375,0.116455078125,-1.6870229007633588,-7.557251908396947,-57.412213740458014,squat
1604240063.7586493,1.129638671875,0.476806640625,0.062744140625,-4.32824427480916,-20.595419847328245,-72.02290076335878,squat
1604240063.7986493,1.0966796875,0.4140625,0.0732421875,-5.824427480916031,-30.83206106870229,-86.58778625954199,squat
1604240063.8386493,1.032958984375,0.44873046875,0.009033203125,-6.694656488549619,-35.55725190839695,-94.61068702290076,squat
1604240063.8786492,0.92919921875,0.427734375,-0.0589599609375,1.3206106870229009,-39.030534351145036,-91.27480916030534,squat
1604240063.9186492,0.8935546875,0.49951171875,-0.0692138671875,11.625954198473282,-41.770992366412216,-99.95419847328245,squat
1604240063.9586492,0.783203125,0.629150390625,-0.0675048828125,9.213740458015268,-46.29007633587786,-97.81679389312977,squat
1604240063.9986491,0.78076171875,0.674072265625,-0.1356201171875,-7.473282442748092,-33.69465648854962,-109.54198473282443,squat
1604240064.038649,0.612060546875,0.722900390625,-0.1387939453125,-13.213740458015268,-23.17557251908397,-125.74045801526718,squat
1604240064.078649,0.625732421875,0.725830078125,-0.1226806640625,-15.580152671755725,-19.198473282442748,-118.93893129770993,squat
1604240064.118649,0.465576171875,0.7158203125,-0.1419677734375,-10.122137404580153,-37.12977099236641,-120.98473282442748,squat
1604240064.158649,0.456298828125,0.819580078125,-0.1585693359375,-18.946564885496183,-12.061068702290076,-108.81679389312977,squat
1604240064.198649,0.3779296875,0.75439453125,-0.0963134765625,-6.801526717557252,-5.358778625954199,-105.46564885496183,squat
1604240064.238649,0.28369140625,0.775634765625,-0.1470947265625,-1.717557251908397,-27.106870229007633,-101.64885496183206,squat
1604240064.2786489,0.34912109375,0.798583984375,-0.1158447265625,-7.404580152671755,0.6793893129770993,-88.80152671755725,squat
1604240064.3186488,0.20458984375,0.84765625,-0.0465087890625,-5.656488549618321,-4.0534351145038165,-82.10687022900764,squat
1604240064.3586488,0.275390625,0.960693359375,-0.1251220703125,-3.9236641221374047,0.5954198473282443,-81.6412213740458,squat
1604240064.3986487,0.108154296875,0.943115234375,-0.0758056640625,0.5267175572519084,6.740458015267175,-74.09160305343511,squat
1604240064.4386487,0.093505859375,0.965576171875,-0.0423583984375,-1.5877862595419847,9.16030534351145,-66.23664122137404,squat
1604240064.4786487,0.10791015625,1.009521484375,-0.0364990234375,-4.152671755725191,31.954198473282442,-48.152671755725194,squat
1604240064.5186486,0.138916015625,0.919189453125,0.00634765625,-2.4198473282442747,25.46564885496183,-33.55725190839695,squat
1604240064.5586486,-0.0623779296875,0.9365234375,-0.0758056640625,0.5038167938931297,5.541984732824427,-18.51145038167939,squat
1604240064.5986485,-0.1163330078125,1.006103515625,-0.0113525390625,2.6259541984732824,-7.793893129770993,-14.679389312977099,squat
1604240064.6386485,-0.0797119140625,0.972900390625,0.031005859375,4.412213740458015,-11.488549618320612,-18.17557251908397,squat
1604240064.6786485,0.03759765625,1.01708984375,-0.0201416015625,-4.557251908396947,-1.8396946564885497,-6.984732824427481,squat
1604240064.7186484,-0.1500244140625,0.965087890625,-0.0220947265625,1.8625954198473282,-3.6259541984732824,-3.282442748091603,squat
1604240064.7586484,-0.1900634765625,0.978515625,-0.0501708984375,4.488549618320611,-14.961832061068701,-0.4351145038167939,squat
1604240064.7986484,-0.0762939453125,1.00732421875,0.00830078125,2.7480916030534353,-9.98473282442748,-0.3435114503816794,squat
1604240064.8386483,-0.0321044921875,0.9990234375,-0.0318603515625,1.1145038167938932,5.969465648854962,0.5343511450381679,squat
1604240064.8786483,-0.1864013671875,0.970703125,-0.0399169921875,0.6335877862595419,5.33587786259542,-0.10687022900763359,squat
1604240064.9186482,-0.0826416015625,0.97216796875,-0.0291748046875,2.572519083969466,0.5877862595419847,2.1908396946564888,squat
1604240064.9586482,-0.0853271484375,0.990966796875,-0.0440673828125,2.633587786259542,6.549618320610687,4.267175572519084,squat
1604240064.9986482,-0.0777587890625,0.979736328125,-0.0262451171875,-2.4427480916030535,7.038167938931298,12.19083969465649,squat
1604240065.0386481,-0.1212158203125,0.977783203125,-0.0350341796875,1.015267175572519,1.2595419847328244,16.557251908396946,squat
1604240065.078648,-0.1168212890625,0.972412109375,-0.0135498046875,3.564885496183206,-9.038167938931299,16.358778625954198,squat
1604240065.118648,0.05322265625,0.988525390625,-0.0318603515625,4.3816793893129775,-8.305343511450381,20.03053435114504,squat
1604240065.158648,0.0078125,1.005859375,0.003662109375,-1.6106870229007633,-6.4961832061068705,29.412213740458014,squat
1604240065.198648,0.076416015625,0.993896484375,-0.0418701171875,-0.5648854961832062,-4.473282442748092,38.267175572519086,squat
1604240065.238648,0.150146484375,0.95361328125,-0.0457763671875,-3.6564885496183206,8.450381679389313,51.05343511450382,squat
1604240065.278648,0.115234375,0.9150390625,-0.0062255859375,-9.572519083969466,15.793893129770993,59.099236641221374,squat
1604240065.3186479,0.20263671875,0.93798828125,-0.0084228515625,-6.67175572519084,16.236641221374047,71.59541984732824,squat
1604240065.3586478,0.2783203125,0.88427734375,-0.0572509765625,-2.0,31.34351145038168,76.70229007633588,squat
1604240065.3986478,0.230712890625,0.9609375,-0.0313720703125,-9.687022900763358,5.8396946564885495,84.10687022900764,squat
1604240065.4386477,0.32177734375,0.67333984375,-0.2176513671875,-8.17557251908397,38.25190839694657,106.19847328244275,squat
1604240065.4786477,0.1962890625,0.8515625,-0.0184326171875,7.32824427480916,18.251908396946565,97.26717557251908,squat
1604240065.5186477,0.357666015625,0.935791015625,0.093994140625,-7.129770992366412,6.030534351145038,117.13740458015268,squat
1604240065.5586476,0.333251953125,0.75927734375,-0.0404052734375,-15.755725190839694,14.251908396946565,119.6412213740458,squat
1604240065.5986476,0.38818359375,0.81005859375,-0.0421142578125,0.31297709923664124,-30.908396946564885,115.07633587786259,squat
1604240065.6386476,0.73681640625,0.7099609375,-0.0325927734375,4.00763358778626,4.8320610687022905,121.14503816793894,squat
1604240065.6786475,0.715087890625,0.68212890625,-0.0213623046875,18.015267175572518,5.099236641221374,111.01526717557252,squat
1604240065.7186475,0.78271484375,0.564697265625,-0.0108642578125,-3.931297709923664,7.648854961832061,111.53435114503817,squat
1604240065.7586474,0.849609375,0.6162109375,-0.0164794921875,13.389312977099237,16.83969465648855,111.17557251908397,squat
1604240065.7986474,0.906982421875,0.601806640625,-0.0460205078125,8.282442748091603,12.625954198473282,115.92366412213741,squat
1604240065.8386474,1.044677734375,0.443115234375,0.094970703125,-0.916030534351145,35.49618320610687,90.7175572519084,squat
1604240065.8786473,1.005126953125,0.42431640625,0.087646484375,1.0916030534351144,18.625954198473284,82.76335877862596,squat
1604240065.9186473,1.003662109375,0.373779296875,0.119140625,5.755725190839694,16.83969465648855,78.18320610687023,squat
1604240065.9586473,1.09033203125,0.36474609375,0.038330078125,-2.564885496183206,5.00763358778626,71.22137404580153,squat
1604240065.9986472,0.962646484375,0.3603515625,0.103515625,-0.8549618320610687,15.045801526717558,62.12213740458015,squat
1604240066.0386472,1.19189453125,0.27587890625,0.05029296875,-7.465648854961832,6.816793893129771,57.58015267175573,squat
1604240066.0786471,1.221923828125,0.26708984375,0.011474609375,-1.9389312977099236,9.595419847328245,37.961832061068705,squat
1604240066.118647,1.183349609375,0.2509765625,0.05224609375,2.7251908396946565,7.9465648854961835,23.83969465648855,squat
1604240066.158647,1.342041015625,0.303466796875,0.083984375,7.076335877862595,-4.2748091603053435,5.175572519083969,squat
1604240066.198647,1.290771484375,0.362060546875,0.1142578125,5.419847328244275,-0.7786259541984732,-18.404580152671755,squat
1604240066.238647,1.26025390625,0.37939453125,0.12158203125,6.00763358778626,-11.442748091603054,-38.51145038167939,squat
1604240066.278647,1.309814453125,0.31201171875,0.063232421875,4.366412213740458,-4.358778625954199,-59.51908396946565,squat
1604240066.318647,1.142333984375,0.324462890625,0.05712890625,2.7022900763358777,-15.053435114503817,-75.93893129770993,squat
1604240066.3586469,1.13818359375,0.35205078125,0.0703125,7.969465648854962,-17.03053435114504,-89.41984732824427,squat
1604240066.3986468,1.073486328125,0.3828125,-0.0059814453125,3.900763358778626,-36.083969465648856,-98.66412213740458,squat
1604240066.4386468,1.057373046875,0.382080078125,0.0126953125,-3.0,-35.50381679389313,-105.05343511450381,squat
1604240066.4786468,0.9345703125,0.434326171875,-0.0560302734375,-0.9541984732824428,-41.05343511450382,-113.54961832061069,squat
1604240066.5186467,0.814208984375,0.53857421875,-0.1341552734375,3.7099236641221376,-45.732824427480914,-103.41984732824427,squat
1604240066.5586467,0.830322265625,0.624755859375,-0.1363525390625,-2.954198473282443,-41.25954198473283,-110.45038167938931,squat
1604240066.5986466,0.739990234375,0.70361328125,-0.1031494140625,-4.67175572519084,-39.16793893129771,-128.18320610687022,squat
1604240066.6386466,0.5908203125,0.757080078125,-0.1414794921875,-26.03053435114504,-25.80916030534351,-144.08396946564886,squat
1604240066.6786466,0.473876953125,0.736083984375,-0.0865478515625,-19.083969465648856,-11.82442748091603,-142.13740458015266,squat
1604240066.7186465,0.315673828125,0.717529296875,0.00244140625,-19.786259541984734,-33.14503816793893,-137.13740458015266,squat
1604240066.7586465,0.356689453125,0.70751953125,-0.1068115234375,-7.885496183206107,-30.48854961832061,-121.57251908396947,squat
1604240066.7986465,0.2607421875,0.757568359375,-0.1097412109375,-14.122137404580153,-9.022900763358779,-111.38167938931298,squat
1604240066.8386464,0.2998046875,0.765625,0.004638671875,7.854961832061068,-19.083969465648856,-101.34351145038168,squat
1604240066.8786464,0.25634765625,0.86474609375,-0.1680908203125,-0.10687022900763359,-10.778625954198473,-87.09160305343511,squat
1604240066.9186463,0.300537109375,0.95654296875,0.052734375,3.351145038167939,16.82442748091603,-71.61068702290076,squat
1604240066.9586463,0.059814453125,0.90380859375,0.046142578125,-3.763358778625954,1.5725190839694656,-54.47328244274809,squat
1604240066.9986463,0.079345703125,1.04833984375,-0.0350341796875,5.557251908396947,-5.267175572519084,-51.41984732824427,squat
1604240067.0386462,0.1669921875,0.983642578125,-0.0860595703125,-10.091603053435115,11.15267175572519,-60.50381679389313,squat
1604240067.0786462,0.06689453125,0.994384765625,-0.0609130859375,4.519083969465649,-7.732824427480916,-43.16793893129771,squat
1604240067.1186461,0.1337890625,0.989013671875,-0.0811767578125,3.4580152671755724,20.34351145038168,-31.435114503816795,squat
1604240067.158646,-0.0220947265625,1.030517578125,-0.0323486328125,-1.7099236641221374,22.17557251908397,-13.992366412213741,squat
1604240067.198646,-0.1812744140625,0.979248046875,-0.0684814453125,-6.732824427480916,7.412213740458015,5.435114503816794,squat
1604240067.238646,-0.1959228515625,0.993408203125,-0.1058349609375,2.381679389312977,-0.10687022900763359,-0.42748091603053434,squat
1604240067.278646,-0.1314697265625,0.97705078125,-0.0457763671875,1.7328244274809161,-18.793893129770993,1.633587786259542,squat
1604240067.318646,-0.0968017578125,0.9814453125,-0.0716552734375,-1.1374045801526718,12.244274809160306,-11.916030534351146,squat
1604240067.358646,-0.1192626953125,0.9609375,-0.0457763671875,2.9083969465648853,13.091603053435115,-10.82442748091603,squat
1604240067.3986459,-0.1536865234375,1.031005859375,0.0068359375,-6.129770992366412,9.465648854961833,-0.7862595419847328,squat
1604240067.4386458,-0.0911865234375,0.985107421875,-0.0484619140625,3.4732824427480917,-9.732824427480915,6.763358778625954,squat
1604240067.4786458,-0.0552978515625,0.979736328125,-0.0186767578125,-1.6793893129770991,-3.5572519083969465,16.15267175572519,squat
1604240067.5186458,-0.1143798828125,0.99560546875,-0.0291748046875,-2.4656488549618323,5.519083969465649,19.52671755725191,squat
1604240067.5586457,-0.1153564453125,0.992431640625,-0.0054931640625,2.7786259541984735,-4.732824427480916,15.65648854961832,squat
1604240067.5986457,-0.0633544921875,0.970947265625,-0.0606689453125,-2.564885496183206,-3.984732824427481,25.519083969465647,squat
1604240067.6386456,0.001953125,1.029296875,-0.0811767578125,-1.1145038167938932,2.2290076335877864,33.05343511450382,squat
1604240067.6786456,0.00048828125,0.975830078125,-0.0733642578125,-8.595419847328245,3.7709923664122136,42.93893129770992,squat
1604240067.7186456,0.132080078125,0.947998046875,-0.1112060546875,-3.213740458015267,3.687022900763359,49.152671755725194,squat
1604240067.7586455,0.06396484375,1.00146484375,0.00537109375,0.15267175572519084,9.549618320610687,52.38167938931298,squat
1604240067.7986455,0.166748046875,0.921630859375,-0.0040283203125,-9.557251908396946,22.53435114503817,53.32824427480916,squat
1604240067.8386455,0.310546875,0.97119140625,0.00537109375,-3.3587786259541983,35.82442748091603,70.03053435114504,squat
1604240067.8786454,0.1669921875,0.92138671875,-0.0057373046875,6.809160305343512,0.9618320610687023,68.77099236641222,squat
1604240067.9186454,0.321533203125,0.864501953125,-0.1707763671875,-31.61832061068702,24.671755725190838,74.80152671755725,squat
1604240067.9586453,0.189453125,0.888427734375,-0.1326904296875,-5.656488549618321,19.267175572519083,74.97709923664122,squat
1604240067.9986453,0.36962890625,0.899169921875,0.04150390625,4.190839694656488,4.564885496183206,88.61832061068702,squat
1604240068.0386453,0.414306640625,0.724365234375,-0.1129150390625,12.908396946564885,3.3740458015267176,87.77862595419847,squat
1604240068.0786452,0.352294921875,0.87890625,-0.0159912109375,-12.045801526717558,29.931297709923665,86.95419847328245,squat
1604240068.1186452,0.4033203125,0.83203125,0.016357421875,3.572519083969466,-17.603053435114504,94.83969465648855,squat
1604240068.1586452,0.545166015625,0.79638671875,-0.0457763671875,7.99236641221374,-3.618320610687023,85.16030534351145,squat
1604240068.198645,0.60107421875,0.825927734375,-0.0135498046875,-0.44274809160305345,12.51908396946565,92.05343511450381,squat
1604240068.238645,0.6455078125,0.63330078125,-0.0247802734375,5.923664122137405,5.786259541984733,92.22137404580153,squat
1604240068.278645,0.670166015625,0.708984375,-0.0697021484375,16.396946564885496,3.2595419847328246,92.56488549618321,squat
1604240068.318645,0.833740234375,0.6337890625,-0.0535888671875,3.816793893129771,25.358778625954198,101.46564885496183,squat
1604240068.358645,0.837890625,0.584228515625,-0.0496826171875,7.900763358778626,14.091603053435115,86.83206106870229,squat
1604240068.398645,0.963623046875,0.432861328125,0.039794921875,3.854961832061069,22.793893129770993,79.78625954198473,squat
1604240068.438645,0.947265625,0.551513671875,0.0966796875,9.702290076335878,19.18320610687023,81.00763358778626,squat
1604240068.4786448,1.026123046875,0.4453125,-0.0242919921875,5.213740458015267,21.96946564885496,73.50381679389314,squat
1604240068.5186448,0.99658203125,0.40380859375,0.02587890625,-3.6946564885496183,16.72519083969466,64.5114503816794,squat
1604240068.5586448,1.99993896484375,-0.2469482421875,-0.0360107421875,8.145038167938932,1.8778625954198473,64.91603053435115,squat
1604240068.5986447,1.0546875,0.39453125,0.01025390625,1.6793893129770991,5.8320610687022905,59.50381679389313,squat
1604240068.6386447,1.189697265625,0.3427734375,0.056396484375,-4.419847328244275,21.015267175572518,44.656488549618324,squat
1604240068.6786447,1.116943359375,0.30810546875,0.033203125,4.061068702290076,-4.931297709923665,35.7557251908397,squat
1604240068.7186446,1.235107421875,0.26513671875,0.0361328125,3.068702290076336,13.793893129770993,15.801526717557252,squat
1604240068.7586446,1.291748046875,0.325927734375,0.051513671875,6.641221374045801,-1.450381679389313,-4.862595419847328,squat
1604240068.7986445,1.22509765625,0.4248046875,0.119140625,5.106870229007634,1.366412213740458,-27.66412213740458,squat
1604240068.8386445,1.26123046875,0.420654296875,0.073974609375,-2.2900763358778624,-3.5877862595419847,-48.50381679389313,squat
1604240068.8786445,1.1767578125,0.478759765625,0.103515625,-2.030534351145038,-6.061068702290076,-66.21374045801527,squat
1604240068.9186444,1.138671875,0.464111328125,0.0927734375,-4.778625954198473,-20.14503816793893,-80.6412213740458,squat
1604240068.9586444,1.03955078125,0.5,0.0927734375,-4.00763358778626,-29.61832061068702,-92.12977099236642,squat
1604240068.9986444,0.984130859375,0.50048828125,0.032958984375,-3.6717557251908395,-38.69465648854962,-100.92366412213741,squat
1604240069.0386443,0.883056640625,0.560546875,-0.0762939453125,0.7862595419847328,-47.55725190839695,-100.86259541984732,squat
1604240069.0786443,0.814453125,0.576904296875,-0.0665283203125,5.343511450381679,-39.00763358778626,-94.91603053435115,squat
1604240069.1186442,0.705810546875,0.670166015625,-0.0262451171875,-1.4274809160305344,-38.12977099236641,-102.4885496183206,squat
1604240069.1586442,0.70458984375,0.676025390625,-0.0753173828125,-5.488549618320611,-28.16793893129771,-102.37404580152672,squat
1604240069.1986442,0.657470703125,0.652099609375,-0.0247802734375,-13.717557251908397,-40.29770992366412,-135.40458015267177,squat
1604240069.2386441,0.51318359375,0.695068359375,-0.0697021484375,-8.16793893129771,-24.65648854961832,-106.31297709923665,squat
1604240069.278644,0.551513671875,0.6591796875,-0.0831298828125,-9.732824427480915,-14.442748091603054,-108.86259541984732,squat
1604240069.318644,0.43115234375,0.71875,-0.1058349609375,-4.5038167938931295,-13.351145038167939,-107.83969465648855,squat
1604240069.358644,0.415283203125,0.759521484375,-0.1026611328125,-5.549618320610687,-18.717557251908396,-101.83206106870229,squat
1604240069.398644,0.41650390625,0.75244140625,-0.0665283203125,7.4961832061068705,-5.702290076335878,-90.7557251908397,squat
1604240069.438644,0.30517578125,0.88525390625,-0.0174560546875,4.564885496183206,-3.519083969465649,-85.55725190839695,squat
1604240069.478644,0.291259765625,0.8544921875,0.0029296875,-6.694656488549619,4.770992366412214,-68.09923664122137,squat
1604240069.5186439,0.19873046875,0.896240234375,-0.0850830078125,5.213740458015267,-0.17557251908396945,-56.656488549618324,squat
1604240069.5586438,0.263916015625,0.9384765625,-0.1966552734375,-5.297709923664122,-10.335877862595419,-42.98473282442748,squat
1604240069.5986438,0.146484375,0.9931640625,-0.0845947265625,-3.267175572519084,19.9618320610687,-59.770992366412216,squat
1604240069.6386437,0.1689453125,0.99951171875,-0.1046142578125,-9.748091603053435,28.862595419847327,-48.458015267175576,squat
1604240069.6786437,0.093994140625,1.011474609375,-0.0394287109375,1.6106870229007633,22.374045801526716,-27.748091603053435,squat
1604240069.7186437,-0.0213623046875,0.927490234375,-0.0701904296875,-1.8931297709923665,6.022900763358779,-18.916030534351144,squat
1604240069.7586436,0.00732421875,0.989990234375,-0.0357666015625,-2.877862595419847,-5.267175572519084,-12.198473282442748,squat
1604240069.7986436,0.135498046875,1.039794921875,-0.0159912109375,-11.13740458015267,6.32824427480916,1.534351145038168,squat
1604240069.8386436,0.061767578125,0.98193359375,0.014404296875,-7.0534351145038165,9.854961832061068,-5.068702290076335,squat
1604240069.8786435,-0.0274658203125,0.97314453125,-0.0802001953125,-7.9541984732824424,17.48854961832061,-2.732824427480916,squat
1604240069.9186435,-0.0455322265625,1.022216796875,0.10205078125,-4.633587786259542,-0.7175572519083969,-4.755725190839694,squat
1604240069.9586434,-0.0206298828125,0.974853515625,0.048095703125,-1.1526717557251909,-1.7328244274809161,5.290076335877862,squat
1604240069.9986434,0.007080078125,0.998779296875,0.05126953125,1.7099236641221374,-20.954198473282442,9.091603053435115,squat
1604240070.0386434,0.07177734375,0.98974609375,0.06689453125,1.1755725190839694,-3.6259541984732824,11.740458015267176,squat
1604240070.0786433,-0.0198974609375,1.01025390625,0.1044921875,-4.083969465648855,-5.938931297709924,25.984732824427482,squat
1604240070.1186433,0.102294921875,1.000244140625,-0.0206298828125,-5.0534351145038165,-14.709923664122137,45.89312977099237,squat
1604240070.1586432,0.0517578125,0.92333984375,0.052490234375,4.694656488549619,-37.30534351145038,47.83206106870229,squat
1604240070.1986432,0.31494140625,0.8603515625,-0.0460205078125,-0.015267175572519083,9.98473282442748,56.47328244274809,squat
1604240070.2386432,0.232177734375,1.086181640625,0.04443359375,-8.236641221374045,-6.221374045801527,71.70229007633588,squat
1604240070.2786431,0.22705078125,0.6943359375,0.169189453125,3.732824427480916,0.7251908396946565,71.10687022900764,squat
1604240070.318643,0.432373046875,0.932861328125,-0.0313720703125,-16.251908396946565,34.045801526717554,85.80152671755725,squat
1604240070.358643,0.143310546875,0.88037109375,0.074951171875,-19.31297709923664,9.65648854961832,90.65648854961832,squat
1604240070.398643,0.321044921875,0.750732421875,0.024169921875,-8.50381679389313,-10.083969465648854,95.05343511450381,squat
1604240070.438643,0.466552734375,0.90380859375,-0.1541748046875,3.145038167938931,24.15267175572519,85.0381679389313,squat
1604240070.478643,0.3583984375,0.903076171875,-0.0880126953125,5.419847328244275,7.656488549618321,89.54198473282443,squat
1604240070.518643,0.4892578125,0.747314453125,-0.0013427734375,2.3969465648854964,-7.732824427480916,89.99236641221374,squat
1604240070.5586429,0.700927734375,0.7470703125,-0.0211181640625,8.01526717557252,4.572519083969466,87.87786259541984,squat
1604240070.5986428,0.617431640625,0.611572265625,-0.0926513671875,10.099236641221374,5.458015267175573,84.86259541984732,squat
1604240070.6386428,0.599365234375,0.735595703125,-0.0543212890625,14.80916030534351,-0.6030534351145038,82.08396946564885,squat
1604240070.6786427,0.740234375,0.7158203125,-0.0103759765625,17.49618320610687,10.458015267175572,85.34351145038168,squat
1604240070.7186427,0.77294921875,0.635986328125,-0.0181884765625,11.236641221374045,14.106870229007633,77.69465648854961,squat
1604240070.7586427,0.830322265625,0.67333984375,-0.0435791015625,16.916030534351144,20.137404580152673,83.06870229007633,squat
1604240070.7986426,0.9072265625,0.52490234375,0.005859375,3.564885496183206,27.229007633587788,70.9618320610687,squat
1604240070.8386426,0.9580078125,0.4912109375,0.032470703125,8.679389312977099,26.916030534351144,66.02290076335878,squat
1604240070.8786426,0.99365234375,0.497802734375,0.068115234375,3.236641221374046,21.404580152671755,63.0,squat
1604240070.9186425,0.951904296875,0.49658203125,0.08642578125,9.687022900763358,7.893129770992366,61.412213740458014,squat
1604240070.9586425,0.898681640625,0.5439453125,0.090576171875,-9.16030534351145,20.916030534351144,62.83206106870229,squat
1604240070.9986424,0.988525390625,0.438232421875,0.135498046875,-4.267175572519084,8.106870229007633,51.49618320610687,squat
1604240071.0386424,1.09326171875,0.476806640625,0.034423828125,-10.618320610687023,13.610687022900763,44.37404580152672,squat
1604240071.0786424,1.0634765625,0.329833984375,0.10498046875,-5.809160305343512,5.320610687022901,38.12977099236641,squat
1604240071.1186423,1.1640625,0.275146484375,0.0595703125,0.4122137404580153,3.045801526717557,25.15267175572519,squat
1604240071.1586423,1.119140625,0.290771484375,0.0625,3.2977099236641223,-0.8625954198473282,15.755725190839694,squat
1604240071.1986423,1.184326171875,0.3466796875,0.121337890625,7.1679389312977095,-1.717557251908397,0.6946564885496184,squat
1604240071.2386422,1.127197265625,0.36376953125,0.19970703125,0.030534351145038167,1.1145038167938932,-11.648854961832061,squat
1604240071.2786422,1.144287109375,0.3740234375,0.148681640625,-1.6870229007633588,-4.9465648854961835,-24.52671755725191,squat
1604240071.3186421,1.18701171875,0.374755859375,0.06884765625,-2.931297709923664,-8.061068702290076,-39.32824427480916,squat
1604240071.358642,1.1474609375,0.39111328125,0.083251953125,-2.435114503816794,-5.923664122137405,-54.06870229007634,squat
1604240071.398642,1.14794921875,0.421630859375,0.135498046875,4.893129770992366,-24.47328244274809,-66.58015267175573,squat
1604240071.438642,1.10498046875,0.416748046875,0.09033203125,-1.9312977099236641,-25.076335877862597,-82.04580152671755,squat
1604240071.478642,1.00146484375,0.42529296875,0.064453125,-2.0229007633587788,-35.06870229007634,-92.38167938931298,squat
1604240071.518642,0.94384765625,0.484619140625,-0.0169677734375,4.435114503816794,-41.37404580152672,-98.31297709923665,squat
1604240071.558642,0.91162109375,0.5947265625,-0.0308837890625,1.4427480916030535,-40.030534351145036,-103.2442748091603,squat
1604240071.5986419,0.792724609375,0.683349609375,0.0009765625,4.687022900763359,-38.66412213740458,-97.87786259541984,squat
1604240071.6386418,0.75341796875,0.727783203125,-0.0616455078125,-1.450381679389313,-36.98473282442748,-112.96946564885496,squat
1604240071.6786418,0.654296875,0.6943359375,-0.0733642578125,-10.534351145038167,-25.52671755725191,-134.45801526717557,squat
1604240071.7186418,0.573486328125,0.728759765625,-0.0447998046875,-15.618320610687023,-20.923664122137403,-129.61832061068702,squat
1604240071.7586417,0.4951171875,0.663330078125,-0.1156005859375,-12.274809160305344,-17.15267175572519,-133.21374045801528,squat
1604240071.7986417,0.37548828125,0.6923828125,-0.0589599609375,-1.0458015267175573,-27.412213740458014,-136.87022900763358,squat
1604240071.8386416,0.385986328125,0.724365234375,-0.1715087890625,-6.465648854961832,-8.801526717557252,-123.20610687022901,squat
1604240071.8786416,0.31005859375,0.77197265625,-0.0640869140625,2.595419847328244,-20.412213740458014,-114.38167938931298,squat
1604240071.9186416,0.258056640625,0.8310546875,-0.1475830078125,4.190839694656488,1.6488549618320612,-114.50381679389314,squat
1604240071.9586415,0.16943359375,0.846435546875,-0.1949462890625,-0.33587786259541985,2.9770992366412212,-92.45801526717557,squat
1604240071.9986415,-0.0267333984375,0.908935546875,-0.0206298828125,9.977099236641221,-16.15267175572519,-76.30534351145039,squat
1604240072.0386415,0.1962890625,0.968505859375,-0.0386962890625,7.450381679389313,-2.0076335877862594,-56.87786259541985,squat
1604240072.0786414,0.011962890625,1.0498046875,-0.0357666015625,1.7709923664122138,-2.564885496183206,-32.458015267175576,squat
1604240072.1186414,0.03173828125,0.985595703125,-0.0172119140625,-7.648854961832061,-2.2442748091603053,-17.893129770992367,squat
1604240072.1586413,-0.0169677734375,0.923828125,-0.0513916015625,-2.5343511450381677,2.236641221374046,-8.938931297709924,squat
1604240072.1986413,-0.1160888671875,1.025390625,-0.0728759765625,-2.763358778625954,16.396946564885496,-9.931297709923664,squat
1604240072.2386413,-0.0943603515625,0.990478515625,-0.0003662109375,-9.412213740458014,13.15267175572519,-5.786259541984733,squat
1604240072.2786412,-0.1517333984375,0.97802734375,-0.1009521484375,5.458015267175573,0.9007633587786259,-3.7251908396946565,squat
1604240072.3186412,-0.1529541015625,0.961669921875,-0.0443115234375,-0.6946564885496184,-1.7557251908396947,-1.7404580152671756,squat
1604240072.3586411,-0.0872802734375,1.005615234375,-0.0335693359375,5.290076335877862,-17.458015267175572,1.5038167938931297,squat
1604240072.398641,-0.0755615234375,0.99365234375,-0.0408935546875,-0.8625954198473282,-11.030534351145038,4.916030534351145,squat
1604240072.438641,-0.0833740234375,0.992431640625,-0.0408935546875,0.7099236641221374,-2.595419847328244,4.137404580152672,squat
1604240072.478641,-0.0631103515625,0.984130859375,-0.0841064453125,2.0610687022900764,-3.267175572519084,4.694656488549619,squat
1604240072.518641,-0.0863037109375,0.977783203125,-0.0411376953125,0.1450381679389313,3.2519083969465647,4.5038167938931295,squat
1604240072.558641,-0.1090087890625,1.00244140625,-0.0321044921875,2.114503816793893,1.7557251908396947,8.511450381679388,squat
1604240072.598641,-0.1136474609375,0.982177734375,-0.0308837890625,3.5572519083969465,-1.8702290076335877,13.19083969465649,squat
1604240072.6386409,-0.1317138671875,0.997802734375,-0.0489501953125,2.2061068702290076,-3.2977099236641223,16.0,squat
1604240072.6786408,-0.0306396484375,0.974853515625,-0.0618896484375,6.8396946564885495,-6.351145038167939,20.9618320610687,squat
1604240072.7186408,0.05224609375,0.9921875,-0.0333251953125,-0.44274809160305345,-2.435114503816794,32.44274809160305,squat
1604240072.7586408,0.10205078125,0.984375,-0.0191650390625,-4.083969465648855,-5.824427480916031,47.099236641221374,squat
1604240072.7986407,0.136474609375,0.94677734375,-0.1011962890625,-10.641221374045802,19.16030534351145,61.908396946564885,squat
1604240072.8386407,0.11669921875,0.9140625,-0.0638427734375,-13.84732824427481,5.587786259541985,64.59541984732824,squat
1604240072.8786407,0.2509765625,0.91015625,-0.0037841796875,-0.732824427480916,20.49618320610687,69.01526717557252,squat
1604240072.9186406,0.2880859375,0.877685546875,-0.0496826171875,-5.694656488549619,36.87786259541985,78.47328244274809,squat
1604240072.9586406,0.276123046875,0.86669921875,0.001708984375,-9.366412213740459,11.786259541984732,84.20610687022901,squat
1604240072.9986405,0.338134765625,0.83642578125,-0.1016845703125,-12.312977099236642,28.3206106870229,90.89312977099236,squat
1604240073.0386405,0.247802734375,0.730712890625,-0.0286865234375,-15.282442748091603,30.099236641221374,102.43511450381679,squat
1604240073.0786405,0.50537109375,0.806884765625,-0.0198974609375,15.916030534351146,0.9007633587786259,99.7175572519084,squat
1604240073.1186404,0.47265625,0.833251953125,0.078857421875,3.404580152671756,14.358778625954198,103.93893129770993,squat
1604240073.1586404,0.491455078125,0.812744140625,-0.0045166015625,8.51908396946565,7.282442748091603,96.30534351145039,squat
1604240073.1986403,0.583251953125,0.787109375,-0.0303955078125,12.65648854961832,-10.129770992366412,109.45038167938931,squat
1604240073.2386403,0.776611328125,0.62451171875,-0.1036376953125,11.732824427480915,9.083969465648854,100.51908396946565,squat
1604240073.2786403,0.607666015625,0.72607421875,-0.0555419921875,11.038167938931299,7.66412213740458,101.46564885496183,squat
1604240073.3186402,0.741943359375,0.624267578125,-0.0196533203125,3.83206106870229,9.320610687022901,98.23664122137404,squat
1604240073.3586402,1.111572265625,0.389404296875,-0.0909423828125,4.312977099236641,30.198473282442748,93.97709923664122,squat
1604240073.3986402,0.859375,0.533935546875,0.033447265625,0.061068702290076333,26.96946564885496,92.93129770992367,squat
1604240073.43864,1.0693359375,0.463134765625,0.046630859375,3.1908396946564888,26.297709923664122,81.29007633587786,squat
1604240073.47864,0.8837890625,0.390625,0.108154296875,-12.045801526717558,-205.42748091603053,101.5114503816794,squat
1604240073.51864,1.0546875,0.419677734375,0.054443359375,6.465648854961832,11.82442748091603,68.36641221374046,squat
1604240073.55864,0.985107421875,0.433349609375,0.071533203125,-3.5267175572519083,12.34351145038168,60.25190839694657,squat
1604240073.59864,1.2197265625,0.206787109375,-0.0394287109375,-1.633587786259542,8.061068702290076,51.38167938931298,squat
1604240073.63864,1.141357421875,0.23876953125,-0.0093994140625,4.793893129770993,17.35114503816794,33.55725190839695,squat
1604240073.67864,1.244384765625,0.294189453125,0.031494140625,4.229007633587786,3.8473282442748094,21.33587786259542,squat
1604240073.7186399,1.217041015625,0.330810546875,0.083984375,5.450381679389313,5.396946564885496,-0.5954198473282443,squat
1604240073.7586398,1.261962890625,0.35791015625,0.14111328125,3.0763358778625953,0.0,-20.87786259541985,squat
1604240073.7986398,1.286865234375,0.408935546875,0.103515625,1.9312977099236641,-5.290076335877862,-40.97709923664122,squat
1604240073.8386397,1.22900390625,0.37255859375,0.0888671875,-5.106870229007634,-8.458015267175572,-58.274809160305345,squat
1604240073.8786397,1.2412109375,0.414794921875,0.11962890625,-5.427480916030534,-15.778625954198473,-75.61832061068702,squat
1604240073.9186397,1.070068359375,0.419189453125,0.05615234375,-2.1603053435114505,-26.251908396946565,-88.79389312977099,squat
1604240073.9586396,1.054931640625,0.443115234375,0.003662109375,-8.778625954198473,-34.74809160305343,-98.32824427480917,squat
1604240073.9986396,0.98486328125,0.464111328125,-0.0223388671875,-4.9465648854961835,-39.33587786259542,-107.8854961832061,squat
1604240074.0386395,0.89892578125,0.548583984375,-0.0242919921875,-5.465648854961832,-40.97709923664122,-112.10687022900764,squat
1604240074.0786395,0.759521484375,0.636474609375,-0.0277099609375,-3.816793893129771,-46.725190839694655,-100.61068702290076,squat
1604240074.1186395,0.763671875,0.719482421875,-0.0811767578125,-11.290076335877863,-42.412213740458014,-113.05343511450381,squat
1604240074.1586394,0.6328125,0.708251953125,-0.1353759765625,-12.641221374045802,-33.14503816793893,-128.49618320610688,squat
