accel_x,accel_y,accel_z,gyro_x,gyro_y,gyro_z,label
1604240733.2177198,1.0380859375,0.558837890625,-0.2362060546875,-5.8320610687022905,-8.01526717557252,-13.076335877862595,squat
1604240733.2577198,1.142333984375,0.539306640625,-0.2769775390625,-9.442748091603054,-5.061068702290076,-26.755725190839694,squat
1604240733.2977197,1.0185546875,0.517822265625,-0.2513427734375,-10.0,-15.923664122137405,-39.25954198473283,squat
1604240733.3377197,1.0087890625,0.5595703125,-0.2369384765625,-11.954198473282442,-16.083969465648856,-49.595419847328245,squat
1604240733.3777196,0.983154296875,0.517822265625,-0.2364501953125,-13.541984732824428,-18.396946564885496,-57.98473282442748,squat
1604240733.4177196,0.913818359375,0.544921875,-0.2264404296875,-15.83969465648855,-24.015267175572518,-64.44274809160305,squat
1604240733.4577196,0.935791015625,0.56005859375,-0.2564697265625,-12.564885496183207,-27.671755725190838,-72.94656488549619,squat
1604240733.4977195,0.840087890625,0.58349609375,-0.2059326171875,-17.366412213740457,-27.404580152671755,-78.19847328244275,squat
1604240733.5377195,0.771728515625,0.622314453125,-0.2330322265625,-16.557251908396946,-31.396946564885496,-83.51908396946565,squat
1604240733.5777194,0.7138671875,0.67041015625,-0.2205810546875,-18.419847328244273,-36.56488549618321,-88.6030534351145,squat
1604240733.6177194,0.691162109375,0.732177734375,-0.2386474609375,-19.51145038167939,-34.19083969465649,-90.48091603053435,squat
1604240733.6577194,0.589599609375,0.723388671875,-0.2467041015625,-21.19083969465649,-33.221374045801525,-93.40458015267176,squat
1604240733.6977193,0.5419921875,0.771484375,-0.2730712890625,-25.83206106870229,-28.83969465648855,-94.63358778625954,squat
1604240733.7377193,0.449462890625,0.81103515625,-0.2008056640625,-22.748091603053435,-26.18320610687023,-98.80152671755725,squat
1604240733.7777193,0.404052734375,0.83740234375,-0.2159423828125,-21.641221374045802,-26.282442748091604,-97.8473282442748,squat
1604240733.8177192,0.31787109375,0.78857421875,-0.1878662109375,-18.541984732824428,-20.129770992366414,-88.14503816793894,squat
1604240733.8577192,0.277099609375,0.85595703125,-0.1678466796875,-19.404580152671755,-27.46564885496183,-85.72519083969466,squat
1604240733.8977191,0.252685546875,0.7900390625,-0.1446533203125,-17.48854961832061,-27.099236641221374,-79.19847328244275,squat
1604240733.937719,0.2080078125,0.890869140625,-0.1971435546875,-4.824427480916031,-37.29770992366412,-67.6793893129771,squat
1604240733.977719,0.282958984375,0.850341796875,-0.2291259765625,-14.145038167938932,-8.923664122137405,-57.045801526717554,squat
1604240734.017719,0.006591796875,0.947021484375,-0.2962646484375,-8.061068702290076,-6.801526717557252,-51.2442748091603,squat
1604240734.057719,0.185791015625,0.93359375,-0.1510009765625,-6.022900763358779,5.458015267175573,-44.16793893129771,squat
1604240734.097719,0.02001953125,0.928955078125,-0.1593017578125,-6.557251908396947,5.778625954198473,-37.908396946564885,squat
1604240734.137719,-0.0936279296875,0.9443359375,-0.1151123046875,0.022900763358778626,5.076335877862595,-37.656488549618324,squat
1604240734.1777189,0.0439453125,0.991455078125,-0.1868896484375,2.5114503816793894,-9.977099236641221,-20.80916030534351,squat
1604240734.2177188,0.060791015625,0.89404296875,-0.1329345703125,4.938931297709924,-1.8625954198473282,-13.114503816793894,squat
1604240734.2577188,-0.0733642578125,0.9794921875,-0.1522216796875,-5.259541984732825,26.786259541984734,-7.854961832061068,squat
1604240734.2977188,-0.0491943359375,0.9794921875,-0.1927490234375,-3.8396946564885495,18.82442748091603,-10.900763358778626,squat
1604240734.3377187,-0.0780029296875,0.994384765625,-0.1656494140625,1.0076335877862594,23.587786259541986,-10.007633587786259,squat
1604240734.3777187,-0.1334228515625,0.97265625,-0.1429443359375,0.5114503816793893,18.458015267175572,-9.549618320610687,squat
1604240734.4177186,-0.0938720703125,0.9677734375,-0.1273193359375,1.1603053435114503,10.01526717557252,-8.549618320610687,squat
1604240734.4577186,-0.1072998046875,0.93310546875,-0.1903076171875,0.8854961832061069,13.34351145038168,-2.519083969465649,squat
1604240734.4977186,-0.1649169921875,0.978515625,-0.1146240234375,-1.7786259541984732,8.679389312977099,2.50381679389313,squat
1604240734.5377185,-0.1756591796875,0.9638671875,-0.1304931640625,2.1603053435114505,-4.893129770992366,6.427480916030534,squat
1604240734.5777185,-0.0496826171875,0.966064453125,-0.1571044921875,-3.5419847328244276,-8.045801526717558,16.68702290076336,squat
1604240734.6177185,-0.0919189453125,0.9794921875,-0.1583251953125,4.679389312977099,-9.572519083969466,14.15267175572519,squat
1604240734.6577184,-0.0137939453125,0.974853515625,-0.1729736328125,0.9083969465648855,-1.5038167938931297,17.27480916030534,squat
1604240734.6977184,-0.0413818359375,0.962158203125,-0.1507568359375,-4.3816793893129775,3.2977099236641223,24.19083969465649,squat
1604240734.7377183,-0.0360107421875,1.007080078125,-0.1209716796875,1.4961832061068703,12.961832061068701,21.251908396946565,squat
1604240734.7777183,-0.0093994140625,1.013916015625,-0.1329345703125,-5.122137404580153,23.114503816793892,21.396946564885496,squat
1604240734.8177183,-0.0130615234375,0.9423828125,-0.1663818359375,9.679389312977099,17.3206106870229,24.99236641221374,squat
1604240734.8577182,0.04150390625,1.044189453125,-0.1949462890625,3.1374045801526718,-0.7022900763358778,27.66412213740458,squat
1604240734.8977182,0.104248046875,0.928466796875,-0.1148681640625,1.4732824427480915,19.50381679389313,32.41984732824427,squat
1604240734.9377182,0.078857421875,0.970703125,-0.2166748046875,3.7099236641221376,22.46564885496183,33.30534351145038,squat
1604240734.977718,0.157470703125,0.98095703125,-0.1483154296875,3.2519083969465647,11.65648854961832,39.48854961832061,squat
1604240735.017718,0.06640625,0.859375,-0.2484130859375,3.8702290076335877,29.85496183206107,38.63358778625954,squat
1604240735.057718,0.227783203125,1.022216796875,-0.2247314453125,22.625954198473284,-5.3816793893129775,39.74809160305343,squat
1604240735.097718,0.205810546875,0.829345703125,-0.1744384765625,8.15267175572519,45.48854961832061,50.282442748091604,squat
1604240735.137718,0.197021484375,1.024658203125,-0.1739501953125,8.916030534351146,24.541984732824428,43.02290076335878,squat
1604240735.177718,0.31396484375,0.93115234375,-0.2528076171875,10.045801526717558,12.80916030534351,56.229007633587784,squat
1604240735.217718,0.393310546875,0.985595703125,-0.2169189453125,12.595419847328245,1.5877862595419847,48.69465648854962,squat
1604240735.2577178,0.431640625,0.8798828125,-0.0626220703125,21.641221374045802,-3.16793893129771,51.93129770992366,squat
1604240735.2977178,0.4130859375,0.748291015625,-0.1624755859375,-4.366412213740458,6.778625954198473,61.38931297709924,squat
1604240735.3377178,0.4482421875,0.808837890625,-0.2227783203125,16.18320610687023,-36.12213740458015,63.36641221374046,squat
1604240735.3777177,0.545654296875,0.871826171875,-0.2803955078125,16.206106870229007,-11.511450381679388,61.038167938931295,squat
1604240735.4177177,0.548583984375,0.831787109375,-0.2545166015625,-4.893129770992366,16.412213740458014,64.78625954198473,squat
1604240735.4577177,0.527099609375,0.781982421875,-0.2266845703125,-0.6183206106870229,8.65648854961832,63.091603053435115,squat
1604240735.4977176,0.5595703125,0.75927734375,-0.2598876953125,0.7633587786259542,5.587786259541985,63.786259541984734,squat
1604240735.5377176,0.68115234375,0.723388671875,-0.2984619140625,10.664122137404581,15.17557251908397,66.47328244274809,squat
1604240735.5777175,0.627197265625,0.701416015625,-0.2760009765625,14.488549618320612,11.061068702290076,61.0,squat
1604240735.6177175,0.7021484375,0.73876953125,-0.1993408203125,9.213740458015268,10.389312977099237,67.72519083969466,squat
1604240735.6577175,0.77001953125,0.64990234375,-0.2401123046875,12.770992366412214,8.709923664122137,60.229007633587784,squat
1604240735.6977174,0.73681640625,0.736572265625,-0.1956787109375,14.725190839694656,0.2900763358778626,58.18320610687023,squat
1604240735.7377174,0.980712890625,0.52294921875,-0.1986083984375,2.3053435114503817,9.938931297709924,60.038167938931295,squat
1604240735.7777174,0.774169921875,0.61376953125,-0.2166748046875,9.068702290076336,6.3816793893129775,54.80152671755725,squat
1604240735.8177173,1.03076171875,0.58935546875,-0.3902587890625,8.061068702290076,12.610687022900763,45.49618320610687,squat
1604240735.8577173,0.78759765625,0.539794921875,-0.1004638671875,12.65648854961832,14.877862595419847,42.51145038167939,squat
1604240735.8977172,0.906005859375,0.5732421875,-0.1981201171875,17.236641221374047,-13.076335877862595,42.221374045801525,squat
1604240735.9377172,1.10107421875,0.4755859375,-0.3218994140625,1.8244274809160306,22.129770992366414,33.9236641221374,squat
1604240735.9777172,0.851806640625,0.506103515625,-0.1778564453125,5.038167938931298,10.351145038167939,32.38167938931298,squat
1604240736.0177171,1.0498046875,0.51220703125,-0.2088623046875,7.740458015267175,10.290076335877863,30.137404580152673,squat
1604240736.057717,1.07763671875,0.468017578125,-0.2225341796875,1.2442748091603053,22.328244274809162,22.083969465648856,squat
1604240736.097717,0.947265625,0.461669921875,-0.1793212890625,1.3969465648854962,7.2748091603053435,17.34351145038168,squat
1604240736.137717,1.059326171875,0.48779296875,-0.2491455078125,2.6793893129770994,-3.2900763358778624,8.595419847328245,squat
1604240736.177717,1.07421875,0.493408203125,-0.2725830078125,-1.0610687022900764,1.6259541984732824,-4.442748091603053,squat
1604240736.217717,1.1240234375,0.5146484375,-0.2176513671875,-2.427480916030534,-14.793893129770993,-15.86259541984733,squat
1604240736.257717,1.116455078125,0.576416015625,-0.2576904296875,-9.412213740458014,-7.076335877862595,-32.396946564885496,squat
1604240736.2977169,1.06396484375,0.51806640625,-0.1876220703125,-9.648854961832061,-24.564885496183205,-43.847328244274806,squat
1604240736.3377168,1.0771484375,0.59765625,-0.2618408203125,-16.015267175572518,-19.72519083969466,-61.045801526717554,squat
1604240736.3777168,1.0146484375,0.556640625,-0.2457275390625,-13.755725190839694,-20.732824427480917,-73.22137404580153,squat
1604240736.4177167,0.86376953125,0.5615234375,-0.2781982421875,-12.603053435114504,-27.923664122137403,-81.73282442748092,squat
1604240736.4577167,0.835205078125,0.513427734375,-0.2384033203125,-6.221374045801527,-32.969465648854964,-81.0381679389313,squat
1604240736.4977167,0.7822265625,0.583984375,-0.2530517578125,-12.954198473282442,-33.70992366412214,-88.19847328244275,squat
1604240736.5377166,0.79345703125,0.647705078125,-0.2391357421875,-10.908396946564885,-32.36641221374046,-92.12213740458016,squat
1604240736.5777166,0.688232421875,0.70361328125,-0.1739501953125,-20.64885496183206,-36.35114503816794,-95.86259541984732,squat
1604240736.6177166,0.599365234375,0.793701171875,-0.2364501953125,-33.93893129770992,-33.083969465648856,-101.08396946564885,squat
1604240736.6577165,0.488037109375,0.72998046875,-0.2418212890625,-27.53435114503817,-37.63358778625954,-96.58778625954199,squat
1604240736.6977165,0.461181640625,0.779052734375,-0.2391357421875,-23.786259541984734,-36.49618320610687,-100.01526717557252,squat
1604240736.7377164,0.408447265625,0.786865234375,-0.2220458984375,-20.33587786259542,-39.32824427480916,-103.0381679389313,squat
1604240736.7777164,0.380126953125,0.797607421875,-0.2318115234375,-20.572519083969464,-32.55725190839695,-97.36641221374046,squat
1604240736.8177164,0.268310546875,0.852783203125,-0.1561279296875,-18.198473282442748,-27.076335877862597,-97.46564885496183,squat
1604240736.8577163,0.25732421875,0.79931640625,-0.1790771484375,-11.541984732824428,-33.18320610687023,-86.94656488549619,squat
1604240736.8977163,0.15625,0.826416015625,-0.2491455078125,-9.312977099236642,-30.549618320610687,-76.8473282442748,squat
1604240736.9377162,0.119873046875,0.87451171875,-0.2686767578125,-5.66412213740458,-24.557251908396946,-57.221374045801525,squat
1604240736.9777162,0.083740234375,0.9970703125,-0.2303466796875,-6.442748091603053,-8.412213740458014,-51.52671755725191,squat
1604240737.0177162,0.03173828125,0.9501953125,-0.1741943359375,-10.282442748091603,-9.49618320610687,-43.14503816793893,squat
1604240737.0577161,0.076904296875,0.97265625,-0.2120361328125,-9.145038167938932,11.923664122137405,-32.11450381679389,squat
1604240737.097716,-0.0389404296875,0.955078125,-0.1495361328125,0.2824427480916031,11.664122137404581,-32.16793893129771,squat
1604240737.137716,-0.0147705078125,1.00048828125,-0.2354736328125,-10.099236641221374,23.374045801526716,-24.770992366412212,squat
1604240737.177716,-0.1114501953125,0.931640625,-0.0816650390625,-0.48091603053435117,10.32824427480916,-16.916030534351144,squat
1604240737.217716,-0.1273193359375,0.97998046875,-0.1632080078125,0.40458015267175573,18.641221374045802,-6.8396946564885495,squat
1604240737.257716,-0.2081298828125,0.9755859375,-0.1231689453125,-5.297709923664122,26.091603053435115,-6.580152671755725,squat
1604240737.297716,-0.2318115234375,0.996337890625,-0.1121826171875,2.3206106870229006,1.916030534351145,-5.030534351145038,squat
1604240737.3377159,-0.1536865234375,0.943359375,-0.1026611328125,6.687022900763359,-2.2595419847328246,0.8244274809160306,squat
1604240737.3777158,-0.1971435546875,0.962646484375,-0.1278076171875,0.9770992366412213,-3.9160305343511452,4.66412213740458,squat
1604240737.4177158,-0.1541748046875,0.9775390625,-0.1727294921875,4.8396946564885495,-17.389312977099237,4.66412213740458,squat
1604240737.4577157,-0.0220947265625,0.953857421875,-0.1578369140625,8.412213740458014,-13.83206106870229,12.526717557251908,squat
1604240737.4977157,-0.0726318359375,0.94580078125,-0.1976318359375,0.030534351145038167,10.816793893129772,19.419847328244273,squat
1604240737.5377157,-0.0811767578125,0.994384765625,-0.1636962890625,2.099236641221374,3.4885496183206106,27.083969465648856,squat
1604240737.5777156,-0.0623779296875,0.97412109375,-0.1759033203125,10.511450381679388,-1.2900763358778626,23.931297709923665,squat
1604240737.6177156,-0.0565185546875,0.932861328125,-0.1304931640625,-1.4580152671755726,20.50381679389313,32.465648854961835,squat
1604240737.6577156,0.015380859375,0.9912109375,-0.2066650390625,0.816793893129771,22.87786259541985,31.64885496183206,squat
1604240737.6977155,0.093505859375,1.005859375,-0.1378173828125,8.694656488549619,24.114503816793892,30.404580152671755,squat
1604240737.7377155,0.11328125,0.865478515625,-0.1600341796875,-5.7251908396946565,17.374045801526716,41.10687022900763,squat
1604240737.7777154,0.021484375,0.978515625,-0.1375732421875,-8.648854961832061,44.23664122137404,48.23664122137404,squat
1604240737.8177154,0.179443359375,0.971435546875,-0.1644287109375,5.5038167938931295,16.389312977099237,51.52671755725191,squat
1604240737.8577154,0.214599609375,0.95068359375,-0.2071533203125,9.580152671755725,21.435114503816795,54.83206106870229,squat
1604240737.8977153,0.212158203125,0.884033203125,-0.1590576171875,5.885496183206107,17.0381679389313,54.48091603053435,squat
1604240737.9377153,0.326416015625,0.87109375,-0.2464599609375,18.12213740458015,13.458015267175572,54.83206106870229,squat
1604240737.9777153,0.3447265625,0.939697265625,-0.3126220703125,2.2748091603053435,30.396946564885496,57.86259541984733,squat
1604240738.0177152,0.25439453125,0.842041015625,-0.1651611328125,19.12213740458015,1.2595419847328244,58.83206106870229,squat
1604240738.0577152,0.451416015625,0.876953125,-0.2305908203125,11.213740458015268,4.824427480916031,59.52671755725191,squat
1604240738.0977151,0.405029296875,0.924560546875,-0.1451416015625,1.465648854961832,28.931297709923665,58.404580152671755,squat
1604240738.137715,0.420166015625,0.833251953125,-0.1658935546875,8.702290076335878,0.8625954198473282,63.37404580152672,squat
1604240738.177715,0.593505859375,0.809326171875,-0.1898193359375,12.618320610687023,1.3740458015267176,64.49618320610686,squat
1604240738.217715,0.48876953125,0.77587890625,-0.2159423828125,11.51908396946565,-2.1526717557251906,64.0,squat
1604240738.257715,0.685302734375,0.76171875,-0.2745361328125,14.335877862595419,-0.48091603053435117,69.16793893129771,squat
1604240738.297715,0.656494140625,0.70166015625,-0.2520751953125,20.427480916030536,4.717557251908397,62.908396946564885,squat
1604240738.337715,0.64111328125,0.780029296875,-0.2530517578125,20.244274809160306,9.816793893129772,68.64885496183206,squat
1604240738.3777149,0.7412109375,0.671875,-0.2142333984375,14.687022900763358,15.19083969465649,65.40458015267176,squat
1604240738.4177148,0.666015625,0.759765625,-0.2220458984375,25.389312977099237,1.8625954198473282,64.68702290076335,squat
1604240738.4577148,0.978515625,0.58154296875,-0.2191162109375,4.091603053435114,17.732824427480917,60.87022900763359,squat
1604240738.4977148,0.709716796875,0.677001953125,-0.2047119140625,9.732824427480915,9.32824427480916,56.97709923664122,squat
1604240738.5377147,0.9326171875,0.516845703125,-0.3353271484375,7.8320610687022905,17.389312977099237,49.091603053435115,squat
1604240738.5777147,0.75244140625,0.612060546875,-0.1566162109375,16.938931297709924,13.679389312977099,50.770992366412216,squat
1604240738.6177146,1.09228515625,0.510498046875,-0.2501220703125,9.17557251908397,11.145038167938932,43.3206106870229,squat
1604240738.6577146,0.805419921875,0.54052734375,-0.1968994140625,12.091603053435115,16.541984732824428,41.42748091603053,squat
1604240738.6977146,1.039794921875,0.504150390625,-0.2381591796875,6.290076335877862,13.106870229007633,38.98473282442748,squat
1604240738.7377145,0.847412109375,0.52880859375,-0.2176513671875,11.412213740458014,14.01526717557252,34.48854961832061,squat
1604240738.7777145,1.021240234375,0.477783203125,-0.2130126953125,6.152671755725191,15.786259541984732,35.3206106870229,squat
1604240738.8177145,1.03857421875,0.43994140625,-0.2427978515625,-0.31297709923664124,15.687022900763358,27.206106870229007,squat
1604240738.8577144,0.91650390625,0.466796875,-0.2406005859375,4.3893129770992365,4.938931297709924,25.740458015267176,squat
1604240738.8977144,0.989013671875,0.458251953125,-0.2659912109375,0.022900763358778626,6.916030534351145,16.82442748091603,squat
1604240738.9377143,0.985107421875,0.375,-0.2132568359375,4.877862595419847,4.694656488549619,8.694656488549619,squat
1604240738.9777143,1.0537109375,0.41259765625,-0.2698974609375,-3.7709923664122136,1.6106870229007633,0.2366412213740458,squat
1604240739.0177143,1.081787109375,0.42626953125,-0.2381591796875,0.25190839694656486,-5.786259541984733,-9.435114503816793,squat
1604240739.0577142,1.041748046875,0.52099609375,-0.2025146484375,-3.2519083969465647,-11.366412213740459,-17.17557251908397,squat
1604240739.0977142,1.183349609375,0.458251953125,-0.1983642578125,-11.038167938931299,-17.740458015267176,-30.38167938931298,squat
1604240739.1377141,1.083740234375,0.526123046875,-0.1912841796875,-16.48854961832061,-14.709923664122137,-45.954198473282446,squat
1604240739.177714,1.06787109375,0.515625,-0.2320556640625,-15.16030534351145,-19.64885496183206,-59.6412213740458,squat
1604240739.217714,0.985595703125,0.514892578125,-0.2601318359375,-11.564885496183207,-28.404580152671755,-71.38931297709924,squat
1604240739.257714,0.93701171875,0.52978515625,-0.2342529296875,-12.511450381679388,-27.53435114503817,-81.23664122137404,squat
1604240739.297714,0.915771484375,0.529296875,-0.2510986328125,-10.595419847328245,-30.137404580152673,-88.80152671755725,squat
1604240739.337714,0.7607421875,0.5400390625,-0.2938232421875,-14.648854961832061,-32.12213740458015,-93.54961832061069,squat
1604240739.377714,0.85107421875,0.571044921875,-0.2008056640625,-11.091603053435115,-35.045801526717554,-94.57251908396947,squat
1604240739.4177139,0.751220703125,0.585205078125,-0.1993408203125,-20.69465648854962,-32.16030534351145,-93.79389312977099,squat
1604240739.4577138,0.687255859375,0.667724609375,-0.2298583984375,-35.52671755725191,-22.64885496183206,-94.61068702290076,squat
1604240739.4977138,0.4912109375,0.7099609375,-0.2462158203125,-32.87786259541985,-24.244274809160306,-97.66412213740458,squat
1604240739.5377138,0.486572265625,0.79345703125,-0.2564697265625,-30.259541984732824,-34.93893129770992,-88.7175572519084,squat
1604240739.5777137,0.427734375,0.849365234375,-0.2701416015625,-24.755725190839694,-27.541984732824428,-97.92366412213741,squat
1604240739.6177137,0.324462890625,0.897705078125,-0.2042236328125,-18.82442748091603,-23.328244274809162,-93.47328244274809,squat
1604240739.6577137,0.281005859375,0.8974609375,-0.1929931640625,-21.740458015267176,-3.6793893129770994,-90.8473282442748,squat
1604240739.6977136,0.30712890625,0.8740234375,-0.1380615234375,-8.49618320610687,26.984732824427482,-88.89312977099236,squat
1604240739.7377136,0.081298828125,0.875244140625,-0.1478271484375,-21.236641221374047,3.0610687022900764,-82.70229007633588,squat
1604240739.7777135,-0.0076904296875,0.88525390625,-0.1370849609375,-1.2442748091603053,-12.648854961832061,-76.21374045801527,squat
1604240739.8177135,0.232421875,0.910888671875,-0.1649169921875,-1.4809160305343512,-3.9160305343511452,-64.64885496183206,squat
1604240739.8577135,0.027099609375,0.97412109375,-0.1627197265625,-0.7175572519083969,-39.7557251908397,-52.67175572519084,squat
1604240739.8977134,0.18505859375,0.94970703125,-0.1737060546875,0.7099236641221374,9.938931297709924,-45.67175572519084,squat
1604240739.9377134,0.14599609375,0.972412109375,-0.1827392578125,-1.7633587786259541,-1.3893129770992367,-36.9236641221374,squat
1604240739.9777133,0.009033203125,0.96044921875,-0.1072998046875,3.2748091603053435,21.458015267175572,-26.38167938931298,squat
1604240740.0177133,-0.0753173828125,0.980224609375,-0.1458740234375,-1.9923664122137406,17.35114503816794,-19.31297709923664,squat
1604240740.0577133,-0.1102294921875,0.957275390625,-0.1383056640625,1.2748091603053435,15.969465648854962,-17.297709923664122,squat
1604240740.0977132,-0.0196533203125,0.8974609375,-0.1475830078125,6.67175572519084,9.679389312977099,-4.442748091603053,squat
1604240740.1377132,-0.2005615234375,0.9794921875,-0.1292724609375,2.3206106870229006,9.473282442748092,1.8473282442748091,squat
1604240740.1777132,-0.1619873046875,0.990234375,-0.1678466796875,3.877862595419847,9.572519083969466,-2.6106870229007635,squat
1604240740.217713,-0.1719970703125,0.95849609375,-0.1739501953125,5.9541984732824424,-7.7251908396946565,0.4122137404580153,squat
1604240740.257713,-0.0841064453125,0.952392578125,-0.1519775390625,2.8473282442748094,-0.6564885496183206,5.374045801526718,squat
1604240740.297713,-0.1031494140625,0.9873046875,-0.1702880859375,1.5648854961832062,9.511450381679388,8.786259541984732,squat
1604240740.337713,-0.1033935546875,0.9423828125,-0.1956787109375,11.595419847328245,-7.297709923664122,12.251908396946565,squat
1604240740.377713,-0.0875244140625,0.963623046875,-0.1280517578125,-1.015267175572519,-8.16793893129771,19.427480916030536,squat
1604240740.417713,-0.0443115234375,0.94677734375,-0.1754150390625,1.9465648854961832,3.4732824427480917,21.68702290076336,squat
1604240740.457713,-0.0218505859375,0.950927734375,-0.2081298828125,-2.885496183206107,-2.3053435114503817,29.633587786259543,squat
1604240740.4977129,-0.0145263671875,0.9658203125,-0.1407470703125,-9.648854961832061,-0.33587786259541985,37.06870229007634,squat
1604240740.5377128,0.029296875,0.92529296875,-0.1212158203125,4.938931297709924,3.648854961832061,44.41984732824427,squat
1604240740.5777128,0.026123046875,0.985595703125,-0.1053466796875,5.816793893129771,17.923664122137403,50.85496183206107,squat
1604240740.6177127,0.12158203125,0.950439453125,-0.0047607421875,-5.480916030534351,7.900763358778626,62.82442748091603,squat
1604240740.6577127,0.111083984375,0.933349609375,-0.2156982421875,18.572519083969464,17.900763358778626,67.00763358778626,squat
1604240740.6977127,0.16455078125,0.89453125,-0.1976318359375,-1.717557251908397,20.603053435114504,75.47328244274809,squat
1604240740.7377126,0.26171875,0.83154296875,-0.2252197265625,14.801526717557252,-2.015267175572519,69.83206106870229,squat
1604240740.7777126,0.361083984375,0.971435546875,-0.2113037109375,16.0,10.625954198473282,73.18320610687023,squat
1604240740.8177125,0.26806640625,0.861083984375,-0.1502685546875,8.534351145038167,12.770992366412214,73.38167938931298,squat
1604240740.8577125,0.359130859375,0.97509765625,-0.1763916015625,7.740458015267175,-10.435114503816793,73.80916030534351,squat
1604240740.8977125,0.466552734375,0.818603515625,-0.1566162109375,12.01526717557252,-12.954198473282442,74.26717557251908,squat
1604240740.9377124,0.592041015625,0.782958984375,-0.2999267578125,19.404580152671755,-6.091603053435114,71.02290076335878,squat
1604240740.9777124,0.52978515625,0.791015625,-0.2984619140625,17.46564885496183,13.755725190839694,65.6412213740458,squat
1604240741.0177124,0.708251953125,0.802978515625,-0.2716064453125,8.061068702290076,24.290076335877863,67.54198473282443,squat
1604240741.0577123,0.574462890625,0.716064453125,-0.2523193359375,26.14503816793893,7.732824427480916,60.05343511450382,squat
1604240741.0977123,0.65478515625,0.809814453125,-0.2218017578125,18.38167938931298,17.52671755725191,67.38931297709924,squat
1604240741.1377122,0.689697265625,0.661376953125,-0.1898193359375,15.572519083969466,10.870229007633588,66.23664122137404,squat
1604240741.1777122,0.72314453125,0.7021484375,-0.2554931640625,15.13740458015267,13.267175572519085,65.94656488549619,squat
1604240741.2177122,0.83544921875,0.650634765625,-0.3258056640625,12.67175572519084,17.229007633587788,61.93893129770992,squat
1604240741.2577121,0.8115234375,0.550537109375,-0.2384033203125,20.748091603053435,29.35114503816794,60.69465648854962,squat
1604240741.297712,0.7333984375,0.586181640625,-0.1915283203125,16.022900763358777,7.549618320610687,60.3587786259542,squat
1604240741.337712,0.98486328125,0.55126953125,-0.2215576171875,5.99236641221374,25.52671755725191,54.9236641221374,squat
1604240741.377712,0.818359375,0.465087890625,-0.1898193359375,20.748091603053435,16.083969465648856,48.64885496183206,squat
1604240741.417712,1.051513671875,0.472412109375,-0.2757568359375,14.381679389312977,14.15267175572519,42.38931297709924,squat
1604240741.457712,0.747314453125,0.53662109375,-0.2340087890625,19.801526717557252,6.038167938931298,39.54961832061068,squat
1604240741.497712,1.20263671875,0.4677734375,-0.2032470703125,7.641221374045801,25.748091603053435,42.61832061068702,squat
1604240741.5377119,0.857666015625,0.4775390625,-0.2091064453125,7.916030534351145,7.038167938931298,31.938931297709924,squat
1604240741.5777118,1.217041015625,0.5,-0.2730712890625,2.816793893129771,14.206106870229007,23.17557251908397,squat
1604240741.6177118,0.9609375,0.43115234375,-0.2335205078125,0.22900763358778625,5.2748091603053435,12.885496183206106,squat
1604240741.6577117,1.1318359375,0.5,-0.3050537109375,-0.4351145038167939,-2.015267175572519,0.22900763358778625,squat
1604240741.6977117,1.195068359375,0.480224609375,-0.2628173828125,-0.015267175572519083,-13.030534351145038,-15.694656488549619,squat
1604240741.7377117,1.185546875,0.51171875,-0.2174072265625,-9.549618320610687,-8.98473282442748,-35.85496183206107,squat
1604240741.7777116,1.12255859375,0.51708984375,-0.2403564453125,-12.076335877862595,-14.664122137404581,-54.11450381679389,squat
1604240741.8177116,1.054443359375,0.54833984375,-0.2601318359375,-11.412213740458014,-22.81679389312977,-66.48091603053435,squat
1604240741.8577116,0.999755859375,0.541259765625,-0.2713623046875,-11.648854961832061,-25.66412213740458,-85.26717557251908,squat
1604240741.8977115,0.900634765625,0.5654296875,-0.2489013671875,-8.610687022900763,-29.740458015267176,-88.61068702290076,squat
1604240741.9377115,0.806640625,0.629150390625,-0.2852783203125,-8.145038167938932,-48.12213740458015,-98.29007633587786,squat
1604240741.9777114,0.82861328125,0.7216796875,-0.2940673828125,-13.412213740458014,-40.69465648854962,-102.3206106870229,squat
1604240742.0177114,0.68505859375,0.6865234375,-0.2633056640625,-23.328244274809162,-42.961832061068705,-99.22137404580153,squat
1604240742.0577114,0.60791015625,0.728515625,-0.2904052734375,-26.595419847328245,-38.47328244274809,-102.09160305343511,squat
1604240742.0977113,0.552001953125,0.700927734375,-0.2913818359375,-27.15267175572519,-27.916030534351144,-101.53435114503817,squat
1604240742.1377113,0.529052734375,0.68798828125,-0.2496337890625,-21.0,-17.46564885496183,-105.91603053435115,squat
1604240742.1777112,0.429443359375,0.75048828125,-0.1766357421875,-22.0,-19.045801526717558,-109.53435114503817,squat
1604240742.2177112,0.33837890625,0.78515625,-0.1580810546875,-20.442748091603054,-14.358778625954198,-102.03053435114504,squat
1604240742.2577112,0.2421875,0.8544921875,-0.1700439453125,-27.267175572519083,-20.740458015267176,-90.83969465648855,squat
1604240742.2977111,0.2177734375,0.834228515625,-0.1561279296875,-20.610687022900763,-14.076335877862595,-83.69465648854961,squat
1604240742.337711,0.127685546875,0.91162109375,-0.1629638671875,-20.954198473282442,-31.931297709923665,-72.3969465648855,squat
1604240742.377711,0.07861328125,0.846435546875,-0.2279052734375,-2.427480916030534,-45.55725190839695,-67.76335877862596,squat
1604240742.417711,0.152099609375,0.888427734375,-0.2432861328125,-8.13740458015267,0.5572519083969466,-55.969465648854964,squat
1604240742.457711,0.125732421875,0.943115234375,-0.2166748046875,-1.5419847328244274,-2.8473282442748094,-56.30534351145038,squat
1604240742.497711,0.18994140625,1.001220703125,-0.1842041015625,-11.541984732824428,45.61832061068702,-50.81679389312977,squat
1604240742.537711,0.057861328125,0.853759765625,-0.1182861328125,0.8931297709923665,48.43511450381679,-43.54961832061068,squat
1604240742.5777109,0.004150390625,0.948486328125,-0.2371826171875,5.694656488549619,46.51908396946565,-22.68702290076336,squat
1604240742.6177108,-0.3011474609375,0.960693359375,-0.2178955078125,-2.267175572519084,39.23664122137404,-9.442748091603054,squat
1604240742.6577108,-0.3243408203125,1.013671875,-0.2139892578125,6.67175572519084,-18.14503816793893,-5.251908396946565,squat
1604240742.6977108,-0.0318603515625,0.906982421875,-0.1922607421875,0.0,-17.763358778625953,0.9236641221374046,squat
1604240742.7377107,-0.0479736328125,1.0009765625,-0.2166748046875,-0.7862595419847328,-1.4961832061068703,-5.541984732824427,squat
1604240742.7777107,-0.0352783203125,0.9521484375,-0.1561279296875,-9.49618320610687,16.236641221374047,5.068702290076335,squat
1604240742.8177106,-0.2691650390625,1.0068359375,-0.1158447265625,3.1603053435114505,-2.1603053435114505,3.49618320610687,squat
1604240742.8577106,-0.0091552734375,0.9912109375,-0.2010498046875,-0.6793893129770993,-14.603053435114504,4.229007633587786,squat
1604240742.8977106,-0.0455322265625,0.9658203125,-0.2301025390625,-3.687022900763359,5.702290076335878,5.145038167938932,squat
1604240742.9377105,-0.0579833984375,0.95947265625,-0.1641845703125,0.3816793893129771,11.694656488549619,6.580152671755725,squat
1604240742.9777105,-0.2347412109375,0.986572265625,-0.1685791015625,0.25190839694656486,10.633587786259541,6.877862595419847,squat
1604240743.0177104,-0.1668701171875,1.015869140625,-0.1414794921875,10.916030534351146,-24.46564885496183,5.549618320610687,squat
1604240743.0577104,-0.0369873046875,0.9794921875,-0.2081298828125,5.595419847328245,-14.923664122137405,12.65648854961832,squat
1604240743.0977104,-0.0067138671875,0.930419921875,-0.2220458984375,8.358778625954198,-14.916030534351146,21.221374045801525,squat
1604240743.1377103,-0.0836181640625,0.969482421875,-0.1710205078125,3.2061068702290076,-6.3893129770992365,27.580152671755727,squat
1604240743.1777103,-0.0518798828125,0.920654296875,-0.1541748046875,-1.1603053435114503,-25.47328244274809,36.49618320610687,squat
1604240743.2177103,0.04833984375,0.94140625,-0.1204833984375,7.488549618320611,-11.358778625954198,37.969465648854964,squat
1604240743.2577102,0.060791015625,0.974609375,-0.1424560546875,11.694656488549619,-1.2290076335877862,42.916030534351144,squat
1604240743.2977102,0.1962890625,0.939453125,-0.1202392578125,2.519083969465649,33.0763358778626,54.29007633587786,squat
1604240743.3377101,0.171142578125,0.87939453125,-0.1226806640625,3.122137404580153,44.32824427480916,67.54961832061069,squat
1604240743.37771,0.01318359375,0.857421875,-0.2432861328125,1.8091603053435115,-4.549618320610687,77.58778625954199,squat
1604240743.41771,0.26513671875,0.9296875,-0.3189697265625,9.389312977099237,-8.198473282442748,84.01526717557252,squat
1604240743.45771,0.23876953125,0.85205078125,-0.3006591796875,10.977099236641221,9.045801526717558,76.00763358778626,squat
1604240743.49771,0.36328125,0.928955078125,-0.3399658203125,16.053435114503817,-17.480916030534353,71.06870229007633,squat
1604240743.53771,0.404296875,0.826171875,-0.2301025390625,3.7022900763358777,47.083969465648856,74.03053435114504,squat
1604240743.57771,0.34716796875,0.813720703125,-0.2274169921875,2.7786259541984735,6.519083969465649,79.05343511450381,squat
1604240743.6177099,0.451904296875,0.795654296875,-0.2034912109375,20.9618320610687,-16.38167938931298,77.69465648854961,squat
1604240743.6577098,0.64453125,0.888916015625,-0.2889404296875,23.015267175572518,3.6412213740458017,77.86259541984732,squat
1604240743.6977098,0.546630859375,0.735107421875,-0.2928466796875,7.541984732824427,14.335877862595419,73.87786259541984,squat
1604240743.7377098,0.70849609375,0.685791015625,-0.2423095703125,19.66412213740458,16.099236641221374,74.67175572519083,squat
1604240743.7777097,0.59619140625,0.763427734375,-0.2264404296875,13.98473282442748,23.587786259541986,69.9618320610687,squat
1604240743.8177097,0.8408203125,0.763671875,-0.2794189453125,17.0,21.870229007633586,70.32824427480917,squat
1604240743.8577096,0.685546875,0.603271484375,-0.1893310546875,11.763358778625955,25.450381679389313,63.25954198473283,squat
1604240743.8977096,0.84228515625,0.62744140625,-0.2591552734375,17.297709923664122,12.893129770992367,64.77099236641222,squat
1604240743.9377096,0.9130859375,0.544189453125,-0.2520751953125,5.961832061068702,26.0381679389313,53.55725190839695,squat
1604240743.9777095,0.724365234375,0.672119140625,-0.2237548828125,16.17557251908397,24.83969465648855,56.19083969465649,squat
1604240744.0177095,0.982177734375,0.51025390625,-0.2186279296875,8.908396946564885,1.0229007633587786,51.70992366412214,squat
1604240744.0577095,0.88232421875,0.598388671875,-0.2015380859375,13.770992366412214,24.053435114503817,43.534351145038165,squat
1604240744.0977094,0.914794921875,0.447509765625,-0.1929931640625,13.106870229007633,10.473282442748092,43.32824427480916,squat
1604240744.1377094,0.93115234375,0.510986328125,-0.2093505859375,7.854961832061068,14.732824427480915,40.10687022900763,squat
1604240744.1777093,1.031494140625,0.49951171875,-0.1807861328125,4.572519083969466,9.770992366412214,32.6412213740458,squat
1604240744.2177093,0.9775390625,0.489990234375,-0.2037353515625,5.625954198473282,10.687022900763358,25.66412213740458,squat
1604240744.2577093,1.078369140625,0.431396484375,-0.2745361328125,-7.152671755725191,9.122137404580153,19.290076335877863,squat
1604240744.2977092,0.93896484375,0.3818359375,-0.2386474609375,5.282442748091603,2.267175572519084,10.83969465648855,squat
1604240744.3377092,1.15380859375,0.446533203125,-0.2327880859375,3.633587786259542,-4.633587786259542,-0.3282442748091603,squat
1604240744.3777092,1.028564453125,0.510986328125,-0.2354736328125,-0.42748091603053434,-12.725190839694656,-12.083969465648854,squat
1604240744.417709,1.19140625,0.504150390625,-0.2374267578125,-10.007633587786259,-17.946564885496183,-25.198473282442748,squat
1604240744.457709,1.088134765625,0.486083984375,-0.2843017578125,-11.977099236641221,-21.076335877862597,-43.35114503816794,squat
1604240744.497709,1.08935546875,0.505615234375,-0.2413330078125,-8.267175572519085,-25.27480916030534,-61.16030534351145,squat
1604240744.537709,1.020263671875,0.543212890625,-0.2210693359375,-5.404580152671755,-38.045801526717554,-76.1145038167939,squat
1604240744.577709,1.02490234375,0.499267578125,-0.2974853515625,-8.435114503816793,-37.47328244274809,-93.53435114503817,squat
1604240744.617709,0.85791015625,0.5283203125,-0.2969970703125,-7.580152671755725,-40.603053435114504,-101.85496183206106,squat
1604240744.657709,0.853515625,0.62109375,-0.3409423828125,-4.908396946564886,-42.732824427480914,-101.22137404580153,squat
1604240744.6977088,0.721435546875,0.759765625,-0.3118896484375,-20.328244274809162,-31.900763358778626,-106.89312977099236,squat
1604240744.7377088,0.57470703125,0.80859375,-0.3074951171875,-28.0381679389313,-26.916030534351144,-111.70229007633588,squat
1604240744.7777088,0.49951171875,0.80126953125,-0.2825927734375,-28.419847328244273,-24.00763358778626,-108.38931297709924,squat
1604240744.8177087,0.46240234375,0.781005859375,-0.3023681640625,-32.17557251908397,-26.47328244274809,-106.70229007633588,squat
1604240744.8577087,0.362060546875,0.745849609375,-0.2510986328125,-29.34351145038168,-27.862595419847327,-106.69465648854961,squat
1604240744.8977087,0.33740234375,0.735107421875,-0.2127685546875,-18.38167938931298,-30.18320610687023,-107.34351145038168,squat
1604240744.9377086,0.267822265625,0.792724609375,-0.1593017578125,-26.519083969465647,-29.38167938931298,-97.6793893129771,squat
1604240744.9777086,0.23095703125,0.838623046875,-0.2149658203125,-14.854961832061068,-35.3206106870229,-87.67175572519083,squat
1604240745.0177085,0.1279296875,0.823974609375,-0.1192626953125,-21.30534351145038,-19.68702290076336,-84.47328244274809,squat
1604240745.0577085,0.091552734375,0.86669921875,-0.3057861328125,-10.358778625954198,-24.419847328244273,-71.06106870229007,squat
1604240745.0977085,0.13818359375,0.855224609375,-0.2830810546875,-10.770992366412214,5.923664122137405,-61.083969465648856,squat
1604240745.1377084,0.0283203125,0.902587890625,-0.1700439453125,-1.7404580152671756,17.374045801526716,-60.49618320610687,squat
1604240745.1777084,0.052490234375,0.974609375,-0.1842041015625,-8.374045801526718,39.19083969465649,-53.48091603053435,squat
1604240745.2177083,-0.2669677734375,0.886962890625,-0.1256103515625,-5.412213740458015,31.12213740458015,-36.6412213740458,squat
1604240745.2577083,-0.0997314453125,0.919677734375,-0.2203369140625,-1.6946564885496183,19.396946564885496,-27.633587786259543,squat
1604240745.2977083,-0.1334228515625,0.90771484375,-0.1102294921875,1.8931297709923665,18.52671755725191,-15.01526717557252,squat
1604240745.3377082,-0.1571044921875,0.990478515625,-0.1722412109375,1.4809160305343512,-0.9083969465648855,-5.786259541984733,squat
1604240745.3777082,-0.0772705078125,0.96630859375,-0.1573486328125,-3.4580152671755724,4.213740458015267,-4.343511450381679,squat
1604240745.4177082,-0.1431884765625,0.990234375,-0.1817626953125,0.5038167938931297,0.09923664122137404,0.3435114503816794,squat
1604240745.4577081,-0.1998291015625,0.980712890625,-0.1614990234375,2.145038167938931,-1.0610687022900764,-0.20610687022900764,squat
1604240745.497708,-0.1746826171875,0.96337890625,-0.1512451171875,0.3893129770992366,-15.595419847328245,1.916030534351145,squat
1604240745.537708,-0.0975341796875,0.9609375,-0.1929931640625,1.015267175572519,-5.66412213740458,2.6030534351145036,squat
1604240745.577708,-0.0968017578125,0.965087890625,-0.1710205078125,0.3816793893129771,9.374045801526718,0.3282442748091603,squat
1604240745.617708,-0.1317138671875,0.94873046875,-0.1588134765625,1.4122137404580153,8.450381679389313,2.366412213740458,squat
1604240745.657708,-0.1558837890625,0.963623046875,-0.1568603515625,4.587786259541985,1.366412213740458,4.412213740458015,squat
1604240745.697708,-0.1119384765625,0.9658203125,-0.1297607421875,9.763358778625955,6.404580152671755,7.694656488549619,squat
1604240745.7377079,-0.1507568359375,0.96484375,-0.1878662109375,6.030534351145038,5.083969465648855,11.938931297709924,squat
1604240745.7777078,-0.1724853515625,0.94873046875,-0.1658935546875,-0.35877862595419846,-4.404580152671755,15.86259541984733,squat
1604240745.8177078,-0.1126708984375,0.947998046875,-0.1539306640625,-1.5954198473282444,-3.4885496183206106,23.236641221374047,squat
1604240745.8577077,-0.1341552734375,0.975341796875,-0.1768798828125,1.6106870229007633,-1.6259541984732824,29.908396946564885,squat
1604240745.8977077,-0.0640869140625,0.972900390625,-0.1495361328125,-8.221374045801527,-2.2290076335877864,41.42748091603053,squat
1604240745.9377077,-0.0018310546875,1.010009765625,-0.1302490234375,2.2442748091603053,-10.007633587786259,49.45038167938932,squat
1604240745.9777076,0.093505859375,0.885498046875,-0.1119384765625,-2.427480916030534,9.51908396946565,53.02290076335878,squat
1604240746.0177076,0.1025390625,0.8955078125,-0.1612548828125,-2.6564885496183206,5.534351145038168,63.00763358778626,squat
1604240746.0577075,0.176025390625,0.91552734375,-0.2210693359375,7.106870229007634,3.687022900763359,72.22137404580153,squat
1604240746.0977075,0.20556640625,0.892822265625,-0.1334228515625,3.0381679389312977,23.557251908396946,69.46564885496183,squat
1604240746.1377075,0.235107421875,0.895751953125,-0.2828369140625,-2.572519083969466,25.68702290076336,73.83206106870229,squat
1604240746.1777074,0.147216796875,0.921875,-0.0880126953125,19.19083969465649,-20.770992366412212,79.48091603053435,squat
1604240746.2177074,0.348876953125,0.838623046875,-0.3175048828125,6.0,-30.549618320610687,84.93893129770993,squat
1604240746.2577074,0.487060546875,0.75341796875,-0.2459716796875,8.442748091603054,-2.2442748091603053,70.66412213740458,squat
1604240746.2977073,0.516845703125,0.8349609375,-0.2655029296875,14.557251908396946,16.572519083969464,72.34351145038168,squat
1604240746.3377073,0.466796875,0.76806640625,-0.2735595703125,2.6564885496183206,18.38167938931298,72.51908396946565,squat
1604240746.3777072,0.4208984375,0.826171875,-0.2135009765625,20.610687022900763,3.954198473282443,67.79389312977099,squat
1604240746.4177072,0.618896484375,0.74951171875,-0.2564697265625,20.938931297709924,-3.984732824427481,70.4885496183206,squat
1604240746.4577072,0.661865234375,0.73193359375,-0.2171630859375,20.229007633587788,12.50381679389313,65.6412213740458,squat
1604240746.4977071,0.64892578125,0.744873046875,-0.2386474609375,8.969465648854962,19.786259541984734,66.61068702290076,squat
1604240746.537707,0.642822265625,0.74853515625,-0.1759033203125,15.725190839694656,23.290076335877863,67.52671755725191,squat
1604240746.577707,0.870361328125,0.672119140625,-0.1812744140625,1.549618320610687,13.587786259541986,67.29770992366412,squat
1604240746.617707,0.676025390625,0.673095703125,-0.1866455078125,14.458015267175572,11.412213740458014,65.89312977099236,squat
1604240746.657707,0.99560546875,0.51806640625,-0.2933349609375,2.2442748091603053,17.458015267175572,63.05343511450382,squat
1604240746.697707,0.675537109375,0.61181640625,-0.1966552734375,14.106870229007633,11.83969465648855,56.76335877862596,squat
1604240746.737707,0.9814453125,0.4892578125,-0.2879638671875,10.534351145038167,3.3282442748091605,59.83206106870229,squat
1604240746.7777069,0.853271484375,0.60205078125,-0.1644287109375,8.068702290076336,25.81679389312977,51.66412213740458,squat
1604240746.8177068,0.87060546875,0.49609375,-0.1883544921875,16.16793893129771,-5.809160305343512,52.458015267175576,squat
1604240746.8577068,1.187744140625,0.479736328125,-0.2430419921875,10.427480916030534,9.717557251908397,46.05343511450382,squat
1604240746.8977067,0.914794921875,0.471923828125,-0.1868896484375,6.709923664122138,21.091603053435115,36.099236641221374,squat
1604240746.9377067,1.007080078125,0.427978515625,-0.1800537109375,6.473282442748092,4.595419847328245,34.62595419847328,squat
1604240746.9777067,0.968994140625,0.46875,-0.2093505859375,2.3893129770992365,9.557251908396946,28.83206106870229,squat
1604240747.0177066,0.9541015625,0.43603515625,-0.2840576171875,5.66412213740458,-2.1374045801526718,21.419847328244273,squat
1604240747.0577066,1.02197265625,0.41796875,-0.2242431640625,0.7480916030534351,6.931297709923665,7.412213740458015,squat
1604240747.0977066,1.0869140625,0.41943359375,-0.2271728515625,0.7557251908396947,-10.48091603053435,-4.6183206106870225,squat
1604240747.1377065,1.14599609375,0.51220703125,-0.2286376953125,-5.427480916030534,-8.267175572519085,-22.984732824427482,squat
1604240747.1777065,1.1533203125,0.5224609375,-0.1888427734375,-4.312977099236641,-9.541984732824428,-37.19083969465649,squat
1604240747.2177064,1.074462890625,0.494384765625,-0.2071533203125,-12.145038167938932,-23.00763358778626,-51.29007633587786,squat
1604240747.2577064,1.080322265625,0.54248046875,-0.2791748046875,-15.34351145038168,-22.633587786259543,-66.32824427480917,squat
1604240747.2977064,1.009033203125,0.534423828125,-0.2464599609375,-7.534351145038168,-31.236641221374047,-80.80152671755725,squat
1604240747.3377063,0.904052734375,0.535888671875,-0.2728271484375,-7.893129770992366,-38.32824427480916,-88.91603053435115,squat
1604240747.3777063,0.857421875,0.57861328125,-0.2801513671875,-6.67175572519084,-44.37404580152672,-89.58015267175573,squat
1604240747.4177063,0.845703125,0.614990234375,-0.3077392578125,-11.770992366412214,-42.49618320610687,-95.0,squat
1604240747.4577062,0.704345703125,0.668212890625,-0.3204345703125,-12.80916030534351,-50.6793893129771,-100.61068702290076,squat
1604240747.4977062,0.698486328125,0.737060546875,-0.2547607421875,-25.427480916030536,-34.23664122137404,-101.70992366412214,squat
1604240747.5377061,0.603759765625,0.72119140625,-0.2960205078125,-30.46564885496183,-30.045801526717558,-103.82442748091603,squat
1604240747.577706,0.4765625,0.72509765625,-0.3218994140625,-29.908396946564885,-30.541984732824428,-103.09160305343511,squat
1604240747.617706,0.42529296875,0.694580078125,-0.2884521484375,-21.358778625954198,-20.717557251908396,-104.68702290076335,squat
1604240747.657706,0.33642578125,0.739501953125,-0.2083740234375,-17.610687022900763,-32.770992366412216,-101.74809160305344,squat
1604240747.697706,0.361328125,0.799072265625,-0.2259521484375,-19.480916030534353,-32.79389312977099,-97.48091603053435,squat
1604240747.737706,0.295654296875,0.797607421875,-0.1292724609375,-22.137404580152673,-10.129770992366412,-89.76335877862596,squat
1604240747.777706,0.072265625,0.858642578125,-0.1832275390625,-15.259541984732824,-38.969465648854964,-78.22137404580153,squat
1604240747.8177059,0.207763671875,0.8623046875,-0.2362060546875,-4.442748091603053,-26.34351145038168,-67.91603053435115,squat
1604240747.8577058,0.03857421875,0.92724609375,-0.2259521484375,-2.2595419847328246,-9.007633587786259,-70.80916030534351,squat
1604240747.8977058,0.131591796875,0.918212890625,-0.1116943359375,-5.106870229007634,11.900763358778626,-57.56488549618321,squat
1604240747.9377058,0.11962890625,0.95068359375,-0.1888427734375,-9.977099236641221,25.35114503816794,-46.16030534351145,squat
1604240747.9777057,-0.0269775390625,0.94384765625,-0.2044677734375,-9.183206106870228,47.98473282442748,-47.49618320610687,squat
1604240748.0177057,0.056640625,0.988037109375,-0.2027587890625,-5.404580152671755,41.57251908396947,-40.44274809160305,squat
1604240748.0577056,-0.1270751953125,0.938720703125,-0.1102294921875,0.22137404580152673,32.152671755725194,-24.33587786259542,squat
1604240748.0977056,-0.1119384765625,0.974853515625,-0.1815185546875,-3.7099236641221376,5.793893129770993,-12.053435114503817,squat
1604240748.1377056,-0.1024169921875,0.93408203125,-0.1942138671875,3.49618320610687,-2.7938931297709924,0.5038167938931297,squat
1604240748.1777055,-0.1278076171875,0.970947265625,-0.2161865234375,3.3053435114503817,-15.977099236641221,2.3740458015267176,squat
1604240748.2177055,-0.1207275390625,0.97802734375,-0.1566162109375,-2.1526717557251906,1.5038167938931297,0.2900763358778626,squat
1604240748.2577055,-0.1739501953125,0.963623046875,-0.1878662109375,2.572519083969466,-2.404580152671756,-4.641221374045801,squat
1604240748.2977054,-0.0877685546875,0.94921875,-0.1727294921875,2.0,-0.46564885496183206,-2.2213740458015265,squat
1604240748.3377054,-0.1141357421875,0.977294921875,-0.1849365234375,4.190839694656488,-2.564885496183206,-2.6412213740458017,squat
1604240748.3777053,-0.0782470703125,0.968505859375,-0.2008056640625,-0.5801526717557252,9.51908396946565,0.5572519083969466,squat
1604240748.4177053,-0.1107177734375,0.954833984375,-0.1964111328125,3.8244274809160306,11.17557251908397,0.022900763358778626,squat
1604240748.4577053,-0.1702880859375,0.966064453125,-0.1651611328125,4.221374045801527,14.51908396946565,2.183206106870229,squat
1604240748.4977052,-0.1436767578125,0.97509765625,-0.1751708984375,3.0381679389312977,5.488549618320611,7.473282442748092,squat
1604240748.5377052,-0.1654052734375,0.938232421875,-0.1893310546875,0.6946564885496184,2.984732824427481,18.748091603053435,squat
1604240748.5777051,-0.1744384765625,0.957763671875,-0.2332763671875,-2.7022900763358777,-7.183206106870229,26.450381679389313,squat
1604240748.617705,-0.1480712890625,0.947509765625,-0.1380615234375,2.4732824427480917,-13.045801526717558,33.099236641221374,squat
1604240748.657705,-0.1160888671875,0.95849609375,-0.1505126953125,0.6793893129770993,-18.717557251908396,38.47328244274809,squat
1604240748.697705,0.039794921875,0.945556640625,-0.1600341796875,-10.740458015267176,-26.68702290076336,55.14503816793893,squat
1604240748.737705,0.105712890625,0.94140625,-0.1151123046875,4.030534351145038,18.763358778625953,55.99236641221374,squat
1604240748.777705,0.101806640625,1.0302734375,-0.0997314453125,-23.00763358778626,27.12213740458015,66.93129770992367,squat
1604240748.817705,0.14404296875,0.88232421875,-0.1297607421875,9.0,12.251908396946565,57.25190839694657,squat
1604240748.8577049,0.308349609375,0.939453125,-0.1429443359375,7.450381679389313,23.198473282442748,69.18320610687023,squat
1604240748.8977048,0.298828125,0.8798828125,-0.1241455078125,-15.564885496183207,41.908396946564885,71.45801526717557,squat
1604240748.9377048,0.2783203125,0.790771484375,-0.2388916015625,2.5343511450381677,11.625954198473282,76.63358778625954,squat
1604240748.9777048,0.37353515625,0.861572265625,-0.1951904296875,13.732824427480915,2.312977099236641,80.14503816793894,squat
1604240749.0177047,0.339111328125,0.844482421875,-0.2330322265625,7.732824427480916,1.2366412213740459,79.30534351145039,squat
1604240749.0577047,0.387451171875,0.765625,-0.1788330078125,16.12213740458015,-5.9541984732824424,79.31297709923665,squat
1604240749.0977046,0.514892578125,0.889892578125,-0.2359619140625,17.129770992366414,-10.488549618320612,75.10687022900764,squat
1604240749.1377046,0.4990234375,0.7509765625,-0.2281494140625,19.778625954198475,3.1755725190839694,79.06106870229007,squat
1604240749.1777046,0.574462890625,0.695556640625,-0.2208251953125,20.72519083969466,8.82442748091603,72.79389312977099,squat
1604240749.2177045,0.623046875,0.787353515625,-0.2518310546875,19.557251908396946,6.0,73.86259541984732,squat
1604240749.2577045,0.67578125,0.749267578125,-0.2325439453125,14.717557251908397,35.083969465648856,73.89312977099236,squat
1604240749.2977045,0.642333984375,0.677001953125,-0.1942138671875,18.358778625954198,3.3969465648854964,75.77862595419847,squat
1604240749.3377044,0.81591796875,0.6474609375,-0.2191162109375,18.236641221374047,12.80916030534351,74.8854961832061,squat
1604240749.3777044,0.7333984375,0.59326171875,-0.2200927734375,14.305343511450381,-1.3969465648854962,76.09160305343511,squat
1604240749.4177043,1.005126953125,0.550537109375,-0.2764892578125,11.297709923664122,17.31297709923664,70.20610687022901,squat
1604240749.4577043,0.84912109375,0.5400390625,-0.2427978515625,14.427480916030534,16.12213740458015,64.78625954198473,squat
1604240749.4977043,0.93310546875,0.531982421875,-0.2296142578125,6.8396946564885495,4.770992366412214,66.02290076335878,squat
1604240749.5377042,0.990234375,0.49658203125,-0.2677001953125,17.022900763358777,5.450381679389313,55.152671755725194,squat
1604240749.5777042,0.900634765625,0.499267578125,-0.2628173828125,9.931297709923664,15.694656488549619,51.56488549618321,squat
1604240749.6177042,1.06787109375,0.382080078125,-0.2259521484375,17.72519083969466,6.786259541984733,46.56488549618321,squat
1604240749.657704,1.010986328125,0.51318359375,-0.2852783203125,7.9465648854961835,12.404580152671755,34.725190839694655,squat
1604240749.697704,1.19677734375,0.376220703125,-0.2501220703125,1.16793893129771,26.221374045801525,22.65648854961832,squat
1604240749.737704,0.905029296875,0.440185546875,-0.2537841796875,3.984732824427481,-2.6030534351145036,16.755725190839694,squat
1604240749.777704,1.1865234375,0.370849609375,-0.3404541015625,1.3435114503816794,4.824427480916031,2.7404580152671754,squat
1604240749.817704,1.0703125,0.37548828125,-0.2413330078125,5.022900763358779,-10.541984732824428,-12.099236641221374,squat
1604240749.857704,1.123046875,0.45849609375,-0.2261962890625,-3.236641221374046,-8.641221374045802,-23.46564885496183,squat
1604240749.897704,1.099609375,0.450927734375,-0.2362060546875,-7.343511450381679,-13.908396946564885,-37.152671755725194,squat
1604240749.9377038,1.065673828125,0.43310546875,-0.2271728515625,-13.977099236641221,-10.442748091603054,-49.030534351145036,squat
1604240749.9777038,1.03466796875,0.438232421875,-0.2425537109375,-14.129770992366412,-17.893129770992367,-62.083969465648856,squat
1604240750.0177038,0.9443359375,0.518310546875,-0.2552490234375,-10.687022900763358,-30.47328244274809,-71.97709923664122,squat
1604240750.0577037,0.963623046875,0.559326171875,-0.2862548828125,-8.954198473282442,-27.938931297709924,-79.40458015267176,squat
1604240750.0977037,0.897216796875,0.572509765625,-0.2659912109375,-11.48091603053435,-39.42748091603053,-86.04580152671755,squat
1604240750.1377037,0.8388671875,0.567138671875,-0.3040771484375,-9.32824427480916,-43.31297709923664,-93.64885496183206,squat
1604240750.1777036,0.778564453125,0.63818359375,-0.2430419921875,-16.64885496183206,-37.16793893129771,-94.5114503816794,squat
1604240750.2177036,0.713623046875,0.658935546875,-0.2305908203125,-27.732824427480917,-39.70229007633588,-97.06106870229007,squat
1604240750.2577035,0.628173828125,0.718994140625,-0.2977294921875,-30.34351145038168,-35.74809160305343,-101.72519083969466,squat
1604240750.2977035,0.5322265625,0.73876953125,-0.3345947265625,-27.748091603053435,-23.702290076335878,-101.54198473282443,squat
1604240750.3377035,0.414306640625,0.723876953125,-0.2208251953125,-30.984732824427482,-21.38167938931298,-101.31297709923665,squat
1604240750.3777034,0.453125,0.746337890625,-0.2496337890625,-21.053435114503817,-26.450381679389313,-102.19847328244275,squat
1604240750.4177034,0.352783203125,0.7880859375,-0.2435302734375,-19.900763358778626,-15.229007633587786,-101.7557251908397,squat
1604240750.4577034,0.353271484375,0.8662109375,-0.2052001953125,-26.46564885496183,-18.51145038167939,-89.59541984732824,squat
1604240750.4977033,-0.0433349609375,0.81640625,-0.1353759765625,-14.450381679389313,-28.366412213740457,-90.89312977099236,squat
1604240750.5377033,0.22900390625,0.869873046875,-0.2015380859375,-17.46564885496183,-20.770992366412212,-76.70229007633588,squat
1604240750.5777032,0.13232421875,0.884521484375,-0.1805419921875,-10.534351145038167,-0.45038167938931295,-75.83969465648855,squat
1604240750.6177032,0.12841796875,0.903564453125,-0.2232666015625,-15.381679389312977,-4.8320610687022905,-62.52671755725191,squat
1604240750.6577032,0.08251953125,0.92236328125,-0.1827392578125,-1.2671755725190839,11.236641221374045,-54.93893129770992,squat
1604240750.6977031,0.1318359375,0.984375,-0.1785888671875,-8.83206106870229,24.198473282442748,-48.14503816793893,squat
1604240750.737703,0.018798828125,0.927490234375,-0.1595458984375,-3.9618320610687023,29.34351145038168,-33.06106870229008,squat
1604240750.777703,-0.0430908203125,0.895263671875,-0.1080322265625,-12.259541984732824,37.51145038167939,-14.297709923664122,squat
1604240750.817703,-0.2608642578125,0.983154296875,-0.1961669921875,0.37404580152671757,15.801526717557252,-10.076335877862595,squat
1604240750.857703,-0.1688232421875,1.014404296875,-0.1453857421875,-5.351145038167939,-10.114503816793894,-10.412213740458014,squat
1604240750.897703,0.08544921875,0.944091796875,-0.2095947265625,3.7022900763358777,24.763358778625953,-17.549618320610687,squat
1604240750.937703,-0.1070556640625,1.00390625,-0.1666259765625,-4.4961832061068705,12.427480916030534,-11.595419847328245,squat
1604240750.9777029,-0.2149658203125,0.95361328125,-0.1927490234375,-1.6412213740458015,9.351145038167939,-2.6030534351145036,squat
1604240751.0177028,-0.1688232421875,0.9716796875,-0.1915283203125,2.6412213740458017,-19.68702290076336,2.648854961832061,squat
1604240751.0577028,-0.0269775390625,0.984619140625,-0.1802978515625,-0.6412213740458015,-1.450381679389313,5.740458015267175,squat
1604240751.0977027,-0.0924072265625,0.98193359375,-0.1458740234375,-0.9923664122137404,8.83206106870229,-2.3053435114503817,squat
1604240751.1377027,-0.1280517578125,0.954345703125,-0.1593017578125,-2.7480916030534353,10.473282442748092,0.6412213740458015,squat
1604240751.1777027,-0.1319580078125,0.966064453125,-0.1593017578125,3.2519083969465647,-2.0,1.8778625954198473,squat
1604240751.2177026,-0.0760498046875,0.972900390625,-0.1458740234375,-0.3969465648854962,-0.2366412213740458,5.00763358778626,squat
1604240751.2577026,-0.1063232421875,0.974365234375,-0.1561279296875,0.5725190839694656,6.32824427480916,6.0458015267175576,squat
1604240751.2977026,-0.1282958984375,0.97900390625,-0.1722412109375,2.9923664122137406,-2.900763358778626,8.84732824427481,squat
1604240751.3377025,-0.1263427734375,0.973388671875,-0.1317138671875,3.7099236641221376,2.16793893129771,8.98473282442748,squat
1604240751.3777025,-0.1114501953125,0.966552734375,-0.1749267578125,4.908396946564886,4.541984732824427,15.16793893129771,squat
1604240751.4177024,-0.1429443359375,0.9794921875,-0.1888427734375,-3.3282442748091605,-2.122137404580153,21.763358778625953,squat
1604240751.4577024,-0.0294189453125,0.92138671875,-0.1605224609375,0.6335877862595419,-4.526717557251908,29.297709923664122,squat
1604240751.4977024,-0.0521240234375,0.94921875,-0.1556396484375,1.6106870229007633,-1.9312977099236641,38.0,squat
1604240751.5377023,0.02978515625,0.957275390625,-0.1512451171875,-5.938931297709924,-19.908396946564885,51.267175572519086,squat
1604240751.5777023,0.05615234375,0.94384765625,-0.1214599609375,1.4274809160305344,4.3893129770992365,60.81679389312977,squat
1604240751.6177022,0.071044921875,1.00390625,-0.2130126953125,-6.015267175572519,7.893129770992366,62.67175572519084,squat
1604240751.6577022,0.17919921875,0.95166015625,-0.1790771484375,-7.206106870229007,11.946564885496183,66.33587786259542,squat
1604240751.6977022,0.22998046875,0.88037109375,-0.2215576171875,15.954198473282442,30.52671755725191,68.3587786259542,squat
1604240751.7377021,0.2802734375,0.93115234375,-0.2396240234375,3.114503816793893,20.221374045801525,80.56488549618321,squat
1604240751.777702,0.20166015625,0.80419921875,-0.1590576171875,3.9923664122137406,10.19083969465649,79.32824427480917,squat
1604240751.817702,0.31103515625,0.90625,-0.1873779296875,14.564885496183207,-17.236641221374047,77.00763358778626,squat
1604240751.857702,0.47021484375,0.891845703125,-0.1370849609375,6.633587786259542,8.412213740458014,80.70229007633588,squat
1604240751.897702,0.438232421875,0.709716796875,-0.2567138671875,0.8702290076335878,-4.793893129770993,82.52671755725191,squat
1604240751.937702,0.576904296875,0.758544921875,-0.1990966796875,20.84732824427481,-16.267175572519083,76.25954198473282,squat
1604240751.977702,0.575927734375,0.78759765625,-0.2847900390625,30.69465648854962,6.312977099236641,75.29770992366412,squat
1604240752.0177019,0.59619140625,0.74609375,-0.2462158203125,13.15267175572519,20.610687022900763,69.57251908396947,squat
1604240752.0577018,0.681640625,0.703857421875,-0.2105712890625,21.786259541984734,1.8854961832061068,73.90076335877863,squat
1604240752.0977018,0.697021484375,0.722900390625,-0.1824951171875,25.267175572519083,19.732824427480917,65.99236641221374,squat
1604240752.1377017,0.774658203125,0.676025390625,-0.2750244140625,9.221374045801527,9.17557251908397,71.79389312977099,squat
1604240752.1777017,0.770751953125,0.6015625,-0.2508544921875,23.18320610687023,20.786259541984734,61.3587786259542,squat
1604240752.2177017,0.79638671875,0.587890625,-0.2318115234375,15.648854961832061,6.030534351145038,63.61832061068702,squat
1604240752.2577016,0.8369140625,0.553955078125,-0.1656494140625,8.32824427480916,18.72519083969466,60.213740458015266,squat
1604240752.2977016,0.91162109375,0.505615234375,-0.2545166015625,18.572519083969464,15.129770992366412,56.656488549618324,squat
1604240752.3377016,0.95556640625,0.560546875,-0.2652587890625,18.022900763358777,12.885496183206106,51.25954198473283,squat
1604240752.3777015,0.923583984375,0.490478515625,-0.1905517578125,10.297709923664122,35.29770992366412,46.01526717557252,squat
1604240752.4177015,0.9140625,0.52978515625,-0.1644287109375,5.923664122137405,-7.6106870229007635,53.02290076335878,squat
1604240752.4577014,1.064697265625,0.42919921875,-0.2803955078125,2.6412213740458017,28.49618320610687,45.38931297709924,squat
1604240752.4977014,0.857177734375,0.52978515625,-0.3148193359375,5.450381679389313,3.633587786259542,40.50381679389313,squat
1604240752.5377014,1.09326171875,0.49560546875,-0.2257080078125,14.748091603053435,13.557251908396946,30.16793893129771,squat
1604240752.5777013,0.9814453125,0.49560546875,-0.1864013671875,-1.450381679389313,6.0,29.34351145038168,squat
1604240752.6177013,1.14990234375,0.409423828125,-0.3094482421875,-0.48091603053435117,12.404580152671755,15.274809160305344,squat
1604240752.6577013,1.0751953125,0.418212890625,-0.2447509765625,-0.6106870229007634,2.427480916030534,2.435114503816794,squat
1604240752.6977012,1.109619140625,0.502197265625,-0.2193603515625,-2.213740458015267,-10.351145038167939,-10.34351145038168,squat
1604240752.7377012,1.13671875,0.4892578125,-0.1837158203125,-4.343511450381679,-15.694656488549619,-25.709923664122137,squat
1604240752.7777011,1.232177734375,0.44189453125,-0.2794189453125,-14.694656488549619,-10.473282442748092,-42.99236641221374,squat
1604240752.817701,1.098876953125,0.505859375,-0.2354736328125,-16.30534351145038,-17.862595419847327,-61.00763358778626,squat
1604240752.857701,1.0859375,0.495849609375,-0.2674560546875,-12.549618320610687,-23.412213740458014,-75.3206106870229,squat
1604240752.897701,0.966552734375,0.53271484375,-0.2139892578125,-5.145038167938932,-36.66412213740458,-88.33587786259542,squat
1604240752.937701,0.922119140625,0.57666015625,-0.2586669921875,-8.442748091603054,-48.23664122137404,-93.41221374045801,squat
1604240752.977701,0.8671875,0.61181640625,-0.2374267578125,-22.64885496183206,-43.25954198473283,-96.80152671755725,squat
1604240753.017701,0.79052734375,0.626953125,-0.2322998046875,-24.519083969465647,-40.93893129770992,-97.76335877862596,squat
1604240753.0577009,0.71630859375,0.6708984375,-0.2364501953125,-25.251908396946565,-41.083969465648856,-104.30534351145039,squat
1604240753.0977008,0.561279296875,0.708251953125,-0.3013916015625,-31.66412213740458,-47.66412213740458,-105.92366412213741,squat
1604240753.1377008,0.578369140625,0.68310546875,-0.3424072265625,-29.290076335877863,-32.00763358778626,-106.57251908396947,squat
1604240753.1777008,0.489501953125,0.65087890625,-0.3050537109375,-27.244274809160306,-20.96946564885496,-110.27480916030534,squat
1604240753.2177007,0.3642578125,0.729736328125,-0.2371826171875,-18.732824427480917,-28.61832061068702,-109.98473282442748,squat
1604240753.2577007,0.398193359375,0.820556640625,-0.2864990234375,-26.27480916030534,-6.534351145038168,-109.1526717557252,squat
1604240753.2977006,0.29150390625,0.866943359375,-0.1046142578125,-20.198473282442748,-9.076335877862595,-99.22900763358778,squat
1604240753.3377006,0.38671875,0.911865234375,-0.2242431640625,-24.16030534351145,-4.549618320610687,-99.3969465648855,squat
1604240753.3777006,0.029541015625,0.843505859375,-0.2200927734375,-19.206106870229007,-19.671755725190838,-84.8473282442748,squat
1604240753.4177005,0.079345703125,0.9169921875,-0.3275146484375,-1.1221374045801527,-19.236641221374047,-69.32824427480917,squat
1604240753.4577005,0.089111328125,0.9033203125,-0.1751708984375,-8.0,12.557251908396946,-66.58778625954199,squat
1604240753.4977005,0.1181640625,0.9970703125,-0.1710205078125,-12.206106870229007,37.70992366412214,-52.80916030534351,squat
1604240753.5377004,0.09033203125,1.017822265625,-0.2435302734375,-5.312977099236641,41.61068702290076,-42.19847328244275,squat
1604240753.5777004,-0.0025634765625,0.8837890625,-0.2506103515625,-5.587786259541985,26.221374045801525,-38.969465648854964,squat
1604240753.6177003,-0.1480712890625,0.977294921875,-0.1549072265625,-0.33587786259541985,13.83206106870229,-33.0763358778626,squat
1604240753.6577003,-0.1912841796875,0.957763671875,-0.1417236328125,4.175572519083969,4.282442748091603,-26.053435114503817,squat
1604240753.6977003,-0.0714111328125,0.950439453125,-0.1888427734375,2.7709923664122136,-8.587786259541986,-20.091603053435115,squat
1604240753.7377002,-0.1260986328125,0.93798828125,-0.1590576171875,5.152671755725191,10.206106870229007,-15.15267175572519,squat
1604240753.7777002,-0.2337646484375,0.96435546875,-0.1573486328125,-0.21374045801526717,3.33587786259542,-3.4122137404580153,squat
1604240753.8177001,-0.2342529296875,0.937744140625,-0.1497802734375,2.015267175572519,-6.854961832061068,-2.3206106870229006,squat
1604240753.8577,-0.1656494140625,0.96142578125,-0.1759033203125,7.145038167938932,0.7404580152671756,-5.0458015267175576,squat
1604240753.8977,-0.1751708984375,0.9697265625,-0.1854248046875,0.6793893129770993,7.076335877862595,-4.923664122137405,squat
1604240753.9377,-0.2061767578125,0.956787109375,-0.1697998046875,3.9160305343511452,8.114503816793894,-2.877862595419847,squat
1604240753.9777,-0.2296142578125,0.947021484375,-0.1744384765625,3.045801526717557,0.4198473282442748,-0.03816793893129771,squat
1604240754.0177,-0.2008056640625,0.9755859375,-0.1844482421875,5.419847328244275,6.083969465648855,2.183206106870229,squat
1604240754.0577,-0.1749267578125,0.962890625,-0.1907958984375,5.259541984732825,6.320610687022901,4.763358778625954,squat
1604240754.0976999,-0.2257080078125,0.9404296875,-0.1961669921875,-1.1145038167938932,7.580152671755725,12.01526717557252,squat
1604240754.1376998,-0.2449951171875,0.97802734375,-0.2025146484375,1.618320610687023,-1.1526717557251909,16.236641221374047,squat
1604240754.1776998,-0.1898193359375,0.98095703125,-0.1688232421875,1.465648854961832,-5.641221374045801,21.099236641221374,squat
1604240754.2176998,-0.1934814453125,0.9384765625,-0.1593017578125,-0.3816793893129771,-7.6183206106870225,24.114503816793892,squat
1604240754.2576997,-0.2015380859375,0.939453125,-0.1895751953125,-1.0076335877862594,-12.229007633587786,27.83206106870229,squat
1604240754.2976997,-0.1431884765625,0.9150390625,-0.1302490234375,-1.1221374045801527,-22.022900763358777,36.099236641221374,squat
1604240754.3376997,-0.0784912109375,0.944091796875,-0.1673583984375,-9.763358778625955,-33.14503816793893,44.29007633587786,squat
1604240754.3776996,0.020263671875,1.00244140625,-0.1571044921875,-3.633587786259542,-16.6793893129771,57.51908396946565,squat
1604240754.4176996,0.11328125,0.91162109375,-0.1429443359375,3.015267175572519,0.061068702290076333,57.51145038167939,squat
1604240754.4576995,0.252197265625,0.940185546875,-0.2142333984375,-5.374045801526718,17.587786259541986,59.11450381679389,squat
1604240754.4976995,0.06494140625,0.90283203125,-0.2044677734375,2.145038167938931,25.099236641221374,57.66412213740458,squat
1604240754.5376995,0.2802734375,0.89404296875,-0.1556396484375,5.267175572519084,22.03053435114504,71.6412213740458,squat
1604240754.5776994,0.226806640625,0.865478515625,-0.1312255859375,5.198473282442748,31.12213740458015,82.47328244274809,squat
1604240754.6176994,0.31640625,0.906494140625,-0.2283935546875,5.824427480916031,-2.1755725190839694,74.05343511450381,squat
1604240754.6576993,0.35546875,0.839599609375,-0.2196044921875,9.702290076335878,-6.244274809160306,83.3969465648855,squat
1604240754.6976993,0.35595703125,0.810791015625,-0.1861572265625,8.526717557251908,3.1297709923664123,79.74809160305344,squat
1604240754.7376993,0.48974609375,0.855224609375,-0.2974853515625,18.587786259541986,-8.32824427480916,80.58778625954199,squat
1604240754.7776992,0.4697265625,0.77490234375,-0.2108154296875,11.877862595419847,13.114503816793894,77.80916030534351,squat
1604240754.8176992,0.5107421875,0.795654296875,-0.2315673828125,21.81679389312977,4.66412213740458,68.6793893129771,squat
1604240754.8576992,0.6611328125,0.771484375,-0.2442626953125,21.763358778625953,22.763358778625953,72.72519083969466,squat
1604240754.897699,0.609130859375,0.701904296875,-0.1922607421875,12.954198473282442,20.297709923664122,69.0,squat
1604240754.937699,0.677978515625,0.700439453125,-0.1771240234375,19.00763358778626,14.389312977099237,72.34351145038168,squat
1604240754.977699,0.848388671875,0.761474609375,-0.1817626953125,25.267175572519083,6.015267175572519,77.87022900763358,squat
1604240755.017699,0.707275390625,0.655517578125,-0.2005615234375,16.66412213740458,9.13740458015267,72.0,squat
1604240755.057699,0.95556640625,0.647705078125,-0.2606201171875,17.82442748091603,15.358778625954198,68.80916030534351,squat
1604240755.097699,0.680908203125,0.627685546875,-0.1212158203125,13.938931297709924,-1.2290076335877862,68.6412213740458,squat
1604240755.137699,1.09765625,0.50439453125,-0.2928466796875,-1.8702290076335877,22.15267175572519,65.0381679389313,squat
1604240755.1776989,0.749755859375,0.51904296875,-0.1995849609375,10.129770992366412,29.236641221374047,60.43511450381679,squat
1604240755.2176988,0.97119140625,0.392578125,-0.2572021484375,13.969465648854962,5.916030534351145,61.038167938931295,squat
1604240755.2576988,0.96240234375,0.513427734375,-0.2432861328125,15.67175572519084,17.328244274809162,56.70229007633588,squat
1604240755.2976987,1.0234375,0.451416015625,-0.2054443359375,9.931297709923664,22.709923664122137,52.465648854961835,squat
1604240755.3376987,0.92431640625,0.509033203125,-0.1488037109375,5.633587786259542,11.15267175572519,50.908396946564885,squat
1604240755.3776987,1.177978515625,0.44970703125,-0.1683349609375,-0.08396946564885496,18.0381679389313,37.76335877862596,squat
1604240755.4176986,1.030517578125,0.454345703125,-0.1727294921875,-6.648854961832061,19.427480916030536,29.82442748091603,squat
1604240755.4576986,1.11962890625,0.3671875,-0.2110595703125,3.1526717557251906,-7.038167938931298,13.954198473282442,squat
1604240755.4976985,1.12890625,0.45068359375,-0.2423095703125,3.8473282442748094,-3.2977099236641223,-3.5114503816793894,squat
1604240755.5376985,1.201416015625,0.4296875,-0.2056884765625,1.9923664122137406,-21.015267175572518,-17.83969465648855,squat
1604240755.5776985,1.231201171875,0.49560546875,-0.2200927734375,-1.2061068702290076,-17.72519083969466,-37.7557251908397,squat
1604240755.6176984,1.080322265625,0.494873046875,-0.1881103515625,-2.053435114503817,-11.885496183206106,-52.41984732824427,squat
1604240755.6576984,1.12451171875,0.411865234375,-0.2388916015625,-11.206106870229007,-27.259541984732824,-66.2442748091603,squat
1604240755.6976984,1.027099609375,0.477294921875,-0.2650146484375,-16.137404580152673,-21.389312977099237,-70.46564885496183,squat
1604240755.7376983,1.019287109375,0.480224609375,-0.2899169921875,-14.740458015267176,-29.061068702290076,-83.87786259541984,squat
1604240755.7776983,0.9326171875,0.48876953125,-0.2523193359375,-8.893129770992367,-29.786259541984734,-88.86259541984732,squat
1604240755.8176982,0.853759765625,0.56201171875,-0.2198486328125,-4.343511450381679,-40.2442748091603,-94.45038167938931,squat
1604240755.8576982,0.81494140625,0.606689453125,-0.2313232421875,-3.7022900763358777,-46.6412213740458,-100.31297709923665,squat
1604240755.8976982,0.771240234375,0.6728515625,-0.2135009765625,-20.50381679389313,-46.48091603053435,-98.79389312977099,squat
1604240755.9376981,0.698486328125,0.685546875,-0.2874755859375,-25.328244274809162,-30.793893129770993,-109.45038167938931,squat
1604240755.977698,0.536376953125,0.689208984375,-0.3050537109375,-21.396946564885496,-30.061068702290076,-108.10687022900764,squat
1604240756.017698,0.474853515625,0.742919921875,-0.2244873046875,-19.900763358778626,-19.85496183206107,-109.54198473282443,squat
1604240756.057698,0.384033203125,0.736083984375,-0.2703857421875,-19.236641221374047,-20.366412213740457,-106.61832061068702,squat
1604240756.097698,0.402587890625,0.760986328125,-0.1856689453125,-21.213740458015266,-20.061068702290076,-105.21374045801527,squat
1604240756.137698,0.244384765625,0.799072265625,-0.1405029296875,-15.65648854961832,-26.977099236641223,-101.53435114503817,squat
1604240756.177698,0.355712890625,0.82275390625,-0.2315673828125,-15.717557251908397,-36.79389312977099,-90.58015267175573,squat
1604240756.2176979,0.107666015625,0.78564453125,-0.2054443359375,-3.6946564885496183,-29.65648854961832,-87.54961832061069,squat
1604240756.2576978,0.10546875,0.865478515625,-0.3126220703125,-9.877862595419847,-19.732824427480917,-76.95419847328245,squat
1604240756.2976978,0.197021484375,0.89892578125,-0.2921142578125,-10.282442748091603,20.358778625954198,-70.37404580152672,squat
1604240756.3376977,0.186279296875,0.902587890625,-0.2459716796875,-8.076335877862595,43.587786259541986,-66.86259541984732,squat
1604240756.3776977,-0.1395263671875,0.985107421875,-0.1563720703125,-7.564885496183206,57.37404580152672,-54.274809160305345,squat
1604240756.4176977,-0.1602783203125,0.9296875,-0.1085205078125,-0.5114503816793893,22.64885496183206,-41.67175572519084,squat
1604240756.4576976,-0.0994873046875,0.969482421875,-0.3101806640625,0.9694656488549618,13.572519083969466,-25.30534351145038,squat
1604240756.4976976,-0.2650146484375,0.95556640625,-0.1829833984375,2.2061068702290076,6.748091603053435,-20.72519083969466,squat
1604240756.5376976,-0.1971435546875,0.99951171875,-0.2432861328125,1.4580152671755726,-5.5038167938931295,-15.679389312977099,squat
1604240756.5776975,-0.0662841796875,0.9482421875,-0.2176513671875,-1.2366412213740459,-4.908396946564886,-14.022900763358779,squat
1604240756.6176975,-0.0545654296875,0.91796875,-0.1893310546875,1.2595419847328244,5.091603053435114,-9.755725190839694,squat
1604240756.6576974,-0.1968994140625,0.97314453125,-0.2371826171875,-3.763358778625954,11.786259541984732,-6.030534351145038,squat
1604240756.6976974,-0.1815185546875,0.974609375,-0.1861572265625,3.7938931297709924,3.4580152671755724,-6.404580152671755,squat
1604240756.7376974,-0.1480712890625,0.935302734375,-0.1802978515625,2.6412213740458017,8.389312977099237,-3.33587786259542,squat
1604240756.7776973,-0.2059326171875,0.971923828125,-0.2022705078125,-1.1145038167938932,9.068702290076336,0.8854961832061069,squat
1604240756.8176973,-0.2259521484375,0.95458984375,-0.1317138671875,4.33587786259542,-3.984732824427481,2.145038167938931,squat
1604240756.8576972,-0.2188720703125,0.981201171875,-0.1795654296875,-1.2748091603053435,-4.343511450381679,7.404580152671755,squat
1604240756.8976972,-0.1541748046875,0.96240234375,-0.2037353515625,2.7709923664122136,-5.656488549618321,5.2748091603053435,squat
1604240756.9376972,-0.1634521484375,0.9658203125,-0.1529541015625,2.900763358778626,2.33587786259542,6.961832061068702,squat
1604240756.9776971,-0.1864013671875,0.967529296875,-0.2203369140625,0.5267175572519084,1.8931297709923665,14.229007633587786,squat
1604240757.017697,-0.1346435546875,0.972900390625,-0.1702880859375,1.3740458015267176,-9.931297709923664,18.87786259541985,squat
1604240757.057697,-0.1995849609375,0.96630859375,-0.1973876953125,-2.0381679389312977,-5.534351145038168,23.091603053435115,squat
1604240757.097697,-0.1820068359375,0.974609375,-0.2322998046875,-2.1908396946564888,-13.389312977099237,23.9618320610687,squat
1604240757.137697,-0.0941162109375,0.959228515625,-0.1802978515625,0.0,-20.450381679389313,28.015267175572518,squat
1604240757.177697,-0.0772705078125,0.92626953125,-0.1512451171875,-8.312977099236642,-18.641221374045802,37.51908396946565,squat
1604240757.217697,-0.0101318359375,0.92333984375,-0.1680908203125,-1.381679389312977,-14.068702290076336,50.57251908396947,squat
1604240757.2576969,0.05615234375,0.965087890625,-0.1251220703125,5.656488549618321,-21.64885496183206,56.00763358778626,squat
1604240757.2976968,0.11376953125,0.91943359375,-0.1483154296875,-12.16030534351145,9.366412213740459,66.51908396946565,squat
1604240757.3376968,0.177734375,0.913330078125,-0.2047119140625,2.3053435114503817,31.053435114503817,59.12213740458015,squat
1604240757.3776968,0.211181640625,0.96435546875,-0.1072998046875,1.8015267175572518,29.198473282442748,70.00763358778626,squat
1604240757.4176967,0.21826171875,0.832275390625,-0.1671142578125,15.305343511450381,15.259541984732824,78.98473282442748,squat
1604240757.4576967,0.375,0.846923828125,-0.2037353515625,3.6946564885496183,16.091603053435115,82.43511450381679,squat
1604240757.4976966,0.300537109375,0.859619140625,-0.2908935546875,-1.6946564885496183,9.267175572519085,83.93129770992367,squat
1604240757.5376966,0.3896484375,0.819091796875,-0.3414306640625,1.9389312977099236,25.580152671755727,84.93893129770993,squat
1604240757.5776966,0.5078125,0.864013671875,-0.1507568359375,12.198473282442748,21.480916030534353,75.05343511450381,squat
1604240757.6176965,0.43798828125,0.814453125,-0.2117919921875,12.82442748091603,-3.900763358778626,83.96946564885496,squat
1604240757.6576965,0.492919921875,0.761962890625,-0.2127685546875,14.763358778625955,5.534351145038168,76.97709923664122,squat
1604240757.6976964,0.64306640625,0.876953125,-0.2679443359375,22.603053435114504,10.709923664122137,75.34351145038168,squat
1604240757.7376964,0.6103515625,0.699951171875,-0.1729736328125,21.198473282442748,-5.122137404580153,75.95419847328245,squat
1604240757.7776964,0.65771484375,0.729248046875,-0.2064208984375,23.27480916030534,12.908396946564885,71.46564885496183,squat
1604240757.8176963,0.728515625,0.743408203125,-0.2059326171875,4.183206106870229,4.145038167938932,75.44274809160305,squat
1604240757.8576963,0.74609375,0.581298828125,-0.2357177734375,5.549618320610687,20.34351145038168,70.6412213740458,squat
1604240757.8976963,0.82080078125,0.614013671875,-0.2579345703125,18.66412213740458,15.885496183206106,70.47328244274809,squat
1604240757.9376962,0.839111328125,0.60205078125,-0.2188720703125,19.450381679389313,0.2824427480916031,69.72519083969466,squat
1604240757.9776962,0.978515625,0.6318359375,-0.2327880859375,15.618320610687023,15.595419847328245,61.343511450381676,squat
1604240758.0176961,0.79638671875,0.496337890625,-0.1956787109375,9.572519083969466,21.549618320610687,62.81679389312977,squat
1604240758.057696,0.983154296875,0.5244140625,-0.2305908203125,14.709923664122137,1.2595419847328244,62.35114503816794,squat
1604240758.097696,0.923583984375,0.4951171875,-0.2430419921875,9.007633587786259,12.603053435114504,55.534351145038165,squat
1604240758.137696,1.05029296875,0.387451171875,-0.2425537109375,1.5801526717557253,20.52671755725191,52.16030534351145,squat
1604240758.177696,0.95068359375,0.4560546875,-0.2008056640625,1.5190839694656488,14.19083969465649,49.44274809160305,squat
1604240758.217696,1.154052734375,0.405029296875,-0.2650146484375,2.3282442748091605,7.816793893129771,40.404580152671755,squat
1604240758.257696,0.9638671875,0.4287109375,-0.2047119140625,7.076335877862595,16.083969465648856,27.732824427480917,squat
1604240758.2976959,1.177734375,0.370849609375,-0.2259521484375,1.4274809160305344,11.083969465648854,20.0,squat
1604240758.3376958,1.105224609375,0.399658203125,-0.2811279296875,-2.0610687022900764,-3.5877862595419847,6.809160305343512,squat
1604240758.3776958,1.141845703125,0.445556640625,-0.1973876953125,2.8244274809160306,-4.587786259541985,-11.007633587786259,squat
1604240758.4176958,1.216064453125,0.428955078125,-0.2188720703125,-3.114503816793893,-20.549618320610687,-28.12213740458015,squat
1604240758.4576957,1.140380859375,0.49853515625,-0.2164306640625,-6.0,-16.16030534351145,-42.37404580152672,squat
1604240758.4976957,1.1552734375,0.378662109375,-0.2196044921875,-16.00763358778626,-20.396946564885496,-56.74045801526717,squat
1604240758.5376956,1.086669921875,0.46630859375,-0.2318115234375,-13.793893129770993,-25.366412213740457,-71.63358778625954,squat
1604240758.5776956,1.025146484375,0.45849609375,-0.2606201171875,-12.770992366412214,-30.80916030534351,-84.31297709923665,squat
1604240758.6176956,0.955078125,0.492919921875,-0.2586669921875,-8.625954198473282,-40.12977099236641,-88.90839694656489,squat
1604240758.6576955,0.899658203125,0.53515625,-0.3311767578125,-4.67175572519084,-44.50381679389313,-98.01526717557252,squat
1604240758.6976955,0.8349609375,0.582763671875,-0.2799072265625,-9.374045801526718,-43.01526717557252,-102.58778625954199,squat
1604240758.7376955,0.80810546875,0.623291015625,-0.2523193359375,-13.923664122137405,-42.961832061068705,-107.14503816793894,squat
1604240758.7776954,0.6181640625,0.715576171875,-0.2242431640625,-26.50381679389313,-37.70229007633588,-108.69465648854961,squat
1604240758.8176954,0.542724609375,0.78515625,-0.2628173828125,-36.06106870229008,-39.29770992366412,-106.95419847328245,squat
1604240758.8576953,0.496826171875,0.763427734375,-0.3221435546875,-29.580152671755727,-38.603053435114504,-104.06106870229007,squat
1604240758.8976953,0.352783203125,0.65234375,-0.3211669921875,-23.0381679389313,-37.045801526717554,-106.61832061068702,squat
1604240758.9376953,0.399169921875,0.73583984375,-0.2779541015625,-28.328244274809162,-26.358778625954198,-103.62595419847328,squat
1604240758.9776952,0.39697265625,0.72607421875,-0.2711181640625,-23.18320610687023,-28.702290076335878,-104.97709923664122,squat
1604240759.0176952,0.248779296875,0.80908203125,-0.2052001953125,-18.33587786259542,-0.4351145038167939,-101.76335877862596,squat
1604240759.0576952,0.28466796875,0.8056640625,-0.2322998046875,-16.732824427480917,-18.15267175572519,-87.09160305343511,squat
1604240759.097695,0.184814453125,0.901611328125,-0.2310791015625,-9.793893129770993,-18.229007633587788,-71.0381679389313,squat
1604240759.137695,0.170654296875,0.9560546875,-0.1883544921875,-3.2290076335877864,8.740458015267176,-61.229007633587784,squat
1604240759.177695,0.1259765625,0.920654296875,-0.1668701171875,-2.7709923664122136,-6.938931297709924,-51.030534351145036,squat
1604240759.217695,0.01171875,0.95751953125,-0.2193603515625,-6.870229007633588,25.15267175572519,-43.67175572519084,squat
1604240759.257695,-0.0574951171875,0.94287109375,-0.1658935546875,-5.7251908396946565,20.480916030534353,-33.38167938931298,squat
1604240759.297695,-0.0797119140625,0.994384765625,-0.2122802734375,-6.541984732824427,23.022900763358777,-26.061068702290076,squat
1604240759.337695,-0.1927490234375,0.955322265625,-0.1036376953125,-5.473282442748092,7.854961832061068,-23.213740458015266,squat
1604240759.3776948,-0.1085205078125,0.954345703125,-0.1656494140625,1.6564885496183206,35.847328244274806,-27.770992366412212,squat
1604240759.4176948,-0.1405029296875,0.93994140625,-0.1051025390625,5.2748091603053435,11.213740458015268,-22.3206106870229,squat
1604240759.4576948,-0.0386962890625,0.916748046875,-0.1014404296875,0.16793893129770993,24.106870229007633,-13.84732824427481,squat
1604240759.4976947,-0.1510009765625,0.958984375,-0.2296142578125,1.8778625954198473,-1.3740458015267176,-2.6030534351145036,squat
1604240759.5376947,-0.1773681640625,0.96826171875,-0.1492919921875,2.0610687022900764,0.5877862595419847,2.236641221374046,squat
1604240759.5776947,-0.1810302734375,0.9755859375,-0.2454833984375,4.396946564885496,0.13740458015267176,-2.8625954198473282,squat
1604240759.6176946,-0.1463623046875,0.968994140625,-0.1973876953125,-1.5038167938931297,15.541984732824428,-3.145038167938931,squat
1604240759.6576946,-0.2152099609375,0.995361328125,-0.1822509765625,3.267175572519084,2.5801526717557253,-2.351145038167939,squat
1604240759.6976945,-0.1282958984375,0.935302734375,-0.1741943359375,3.1908396946564888,-1.0305343511450382,1.7251908396946565,squat
1604240759.7376945,-0.0994873046875,0.969482421875,-0.1876220703125,1.9923664122137406,2.8396946564885495,8.83969465648855,squat
1604240759.7776945,-0.1925048828125,0.9765625,-0.1883544921875,0.7099236641221374,-0.05343511450381679,8.358778625954198,squat
1604240759.8176944,-0.1527099609375,0.9833984375,-0.1981201171875,0.6335877862595419,0.7175572519083969,8.946564885496183,squat
1604240759.8576944,-0.1297607421875,0.959228515625,-0.2012939453125,2.1908396946564888,-1.8854961832061068,11.0,squat
1604240759.8976943,-0.0826416015625,0.984130859375,-0.1832275390625,-4.3816793893129775,0.549618320610687,17.610687022900763,squat
1604240759.9376943,-0.1177978515625,0.96337890625,-0.1922607421875,-5.709923664122138,-2.145038167938931,24.580152671755727,squat
1604240759.9776943,-0.0479736328125,0.959228515625,-0.2149658203125,4.190839694656488,-4.030534351145038,29.129770992366414,squat
1604240760.0176942,-0.0208740234375,0.952392578125,-0.2452392578125,-1.251908396946565,-6.221374045801527,36.87786259541985,squat
1604240760.0576942,0.019287109375,0.9443359375,-0.1563720703125,-9.442748091603054,-8.129770992366412,50.656488549618324,squat
1604240760.0976942,-0.0201416015625,0.967041015625,-0.1727294921875,6.847328244274809,-10.534351145038167,54.13740458015267,squat
1604240760.1376941,0.166015625,0.94140625,-0.1285400390625,-1.9618320610687023,-13.83969465648855,67.3969465648855,squat
1604240760.177694,0.13525390625,0.88427734375,-0.2181396484375,-1.717557251908397,27.022900763358777,66.58015267175573,squat
1604240760.217694,0.21533203125,0.92333984375,-0.2904052734375,-12.358778625954198,20.740458015267176,71.17557251908397,squat
1604240760.257694,0.310791015625,0.83837890625,-0.1676025390625,8.305343511450381,15.977099236641221,75.12213740458016,squat
1604240760.297694,0.248046875,0.904052734375,-0.3233642578125,9.358778625954198,18.641221374045802,80.7557251908397,squat
1604240760.337694,0.40966796875,0.83154296875,-0.2264404296875,-9.351145038167939,17.900763358778626,84.2442748091603,squat
1604240760.377694,0.309326171875,0.71240234375,-0.1827392578125,20.69465648854962,-7.2748091603053435,84.06106870229007,squat
1604240760.4176939,0.593994140625,0.90380859375,-0.3026123046875,25.587786259541986,-13.595419847328245,79.76335877862596,squat
1604240760.4576938,0.456298828125,0.775634765625,-0.1500244140625,12.122137404580153,25.65648854961832,76.83206106870229,squat
1604240760.4976938,0.4794921875,0.814697265625,-0.1419677734375,6.114503816793893,7.076335877862595,81.54961832061069,squat
1604240760.5376937,0.717041015625,0.75927734375,-0.2606201171875,26.557251908396946,-11.603053435114504,80.87022900763358,squat
1604240760.5776937,0.712158203125,0.64794921875,-0.2359619140625,20.03053435114504,14.32824427480916,76.37404580152672,squat
1604240760.6176937,0.6142578125,0.71826171875,-0.2340087890625,13.908396946564885,3.2442748091603053,82.54198473282443,squat
1604240760.6576936,0.814208984375,0.604248046875,-0.3280029296875,21.50381679389313,10.954198473282442,79.61832061068702,squat
1604240760.6976936,0.662353515625,0.66943359375,-0.1876220703125,22.374045801526716,17.404580152671755,76.07633587786259,squat
1604240760.7376935,0.734130859375,0.7275390625,-0.2552490234375,10.412213740458014,9.32824427480916,78.29007633587786,squat
1604240760.7776935,0.920166015625,0.564208984375,-0.1478271484375,9.122137404580153,18.374045801526716,69.44274809160305,squat
1604240760.8176935,0.8544921875,0.583251953125,-0.2569580078125,7.427480916030534,17.099236641221374,65.22900763358778,squat
1604240760.8576934,0.998291015625,0.349609375,-0.2933349609375,3.5877862595419847,28.16030534351145,64.34351145038168,squat
1604240760.8976934,0.894287109375,0.449951171875,-0.2491455078125,25.954198473282442,8.32824427480916,55.16793893129771,squat
1604240760.9376934,1.075439453125,0.45947265625,-0.2052001953125,14.229007633587786,13.633587786259541,52.221374045801525,squat
1604240760.9776933,1.027099609375,0.396240234375,-0.2264404296875,4.2748091603053435,20.045801526717558,47.7557251908397,squat
1604240761.0176933,1.101318359375,0.427978515625,-0.2806396484375,-0.25190839694656486,21.31297709923664,38.56488549618321,squat
1604240761.0576932,1.063720703125,0.367431640625,-0.2052001953125,3.7938931297709924,10.488549618320612,29.83969465648855,squat
1604240761.0976932,1.1416015625,0.406494140625,-0.2100830078125,1.702290076335878,8.48091603053435,17.763358778625953,squat
1604240761.1376932,1.126953125,0.375244140625,-0.2620849609375,-2.114503816793893,0.6259541984732825,6.633587786259542,squat
1604240761.1776931,1.102783203125,0.42041015625,-0.2305908203125,1.1984732824427482,-3.2290076335877864,-9.297709923664122,squat
1604240761.217693,1.14501953125,0.381103515625,-0.2550048828125,-6.1679389312977095,-11.641221374045802,-23.755725190839694,squat
1604240761.257693,1.172119140625,0.438720703125,-0.2420654296875,-4.870229007633588,-18.38167938931298,-40.68702290076336,squat
1604240761.297693,1.189453125,0.42529296875,-0.2261962890625,-11.229007633587786,-17.251908396946565,-59.98473282442748,squat
1604240761.337693,1.09521484375,0.439697265625,-0.2781982421875,-13.030534351145038,-20.46564885496183,-72.42748091603053,squat
1604240761.377693,1.03173828125,0.430908203125,-0.2718505859375,-6.297709923664122,-21.33587786259542,-86.21374045801527,squat
1604240761.417693,0.940185546875,0.5029296875,-0.2362060546875,0.007633587786259542,-37.16793893129771,-89.92366412213741,squat
1604240761.4576929,0.861572265625,0.58837890625,-0.2188720703125,-7.801526717557252,-39.61068702290076,-96.48091603053435,squat
1604240761.4976928,0.8359375,0.546630859375,-0.2618408203125,-10.122137404580153,-36.030534351145036,-100.55725190839695,squat
1604240761.5376928,0.723388671875,0.622802734375,-0.2657470703125,-15.625954198473282,-54.770992366412216,-98.57251908396947,squat
1604240761.5776927,0.78466796875,0.67626953125,-0.2701416015625,-24.435114503816795,-40.603053435114504,-103.47328244274809,squat
1604240761.6176927,0.502685546875,0.7275390625,-0.2947998046875,-24.85496183206107,-30.96946564885496,-104.89312977099236,squat
1604240761.6576927,0.520751953125,0.79296875,-0.2518310546875,-38.3587786259542,-32.404580152671755,-98.36641221374046,squat
1604240761.6976926,0.4560546875,0.7001953125,-0.3140869140625,-30.61832061068702,-35.778625954198475,-101.62595419847328,squat
1604240761.7376926,0.41064453125,0.718505859375,-0.2816162109375,-20.732824427480917,-39.49618320610687,-103.98473282442748,squat
1604240761.7776926,0.428466796875,0.7783203125,-0.2559814453125,-24.282442748091604,-19.923664122137403,-108.58015267175573,squat
1604240761.8176925,0.203857421875,0.722900390625,-0.2508544921875,-19.931297709923665,-17.47328244274809,-100.17557251908397,squat
1604240761.8576925,0.240234375,0.8603515625,-0.1566162109375,-26.984732824427482,-10.488549618320612,-92.74809160305344,squat
1604240761.8976924,0.13623046875,0.819580078125,-0.2628173828125,-15.114503816793894,-6.458015267175573,-77.57251908396947,squat
1604240761.9376924,0.2939453125,0.900634765625,-0.1920166015625,-12.610687022900763,14.259541984732824,-71.13740458015268,squat
1604240761.9776924,0.003662109375,0.927734375,-0.2464599609375,-7.32824427480916,-1.2442748091603053,-50.83206106870229,squat
1604240762.0176923,0.091552734375,0.9150390625,-0.1134033203125,-3.7404580152671754,-0.12213740458015267,-44.19847328244275,squat
1604240762.0576923,0.099365234375,0.965087890625,-0.2181396484375,-6.022900763358779,29.206106870229007,-38.68702290076336,squat
1604240762.0976923,-0.0972900390625,0.949462890625,-0.1754150390625,-6.519083969465649,38.68702290076336,-30.541984732824428,squat
1604240762.1376922,-0.2139892578125,0.922607421875,-0.1107177734375,-6.694656488549619,44.770992366412216,-20.076335877862597,squat
1604240762.1776922,-0.1866455078125,0.99365234375,-0.2178955078125,-1.1450381679389312,15.687022900763358,-20.198473282442748,squat
1604240762.2176921,-0.1290283203125,0.98046875,-0.0946044921875,1.0229007633587786,4.702290076335878,-18.16030534351145,squat
1604240762.257692,-0.0059814453125,0.925537109375,-0.2059326171875,0.9007633587786259,6.183206106870229,-12.450381679389313,squat
1604240762.297692,-0.0355224609375,0.991943359375,-0.2012939453125,-2.267175572519084,9.900763358778626,-9.977099236641221,squat
1604240762.337692,-0.2252197265625,0.947021484375,-0.1522216796875,-1.2366412213740459,11.725190839694656,-3.2061068702290076,squat
1604240762.377692,-0.1732177734375,0.99462890625,-0.1973876953125,2.5877862595419847,-0.8473282442748091,-0.6259541984732825,squat
1604240762.417692,-0.0809326171875,0.961669921875,-0.1871337890625,-4.1603053435114505,0.3282442748091603,3.2213740458015265,squat
1604240762.457692,-0.1058349609375,0.96728515625,-0.1710205078125,1.5725190839694656,5.916030534351145,-0.5114503816793893,squat
1604240762.4976919,-0.1365966796875,0.955810546875,-0.2003173828125,-1.618320610687023,10.488549618320612,1.2366412213740459,squat
1604240762.5376918,-0.1126708984375,0.982421875,-0.1678466796875,-0.5114503816793893,6.114503816793893,5.251908396946565,squat
1604240762.5776918,-0.1605224609375,0.953125,-0.1800537109375,0.9847328244274809,1.282442748091603,8.282442748091603,squat
1604240762.6176918,-0.1204833984375,0.974365234375,-0.1370849609375,1.1145038167938932,-1.4732824427480915,10.435114503816793,squat
1604240762.6576917,-0.1556396484375,0.984130859375,-0.2000732421875,-4.786259541984733,3.6717557251908395,13.534351145038167,squat
1604240762.6976917,-0.1251220703125,0.9716796875,-0.1646728515625,5.519083969465649,-3.213740458015267,11.473282442748092,squat
1604240762.7376916,-0.1036376953125,0.97265625,-0.1629638671875,1.3206106870229009,-2.0839694656488548,16.564885496183205,squat
1604240762.7776916,-0.1121826171875,0.994140625,-0.1695556640625,-3.519083969465649,2.4580152671755724,23.229007633587788,squat
1604240762.8176916,-0.0604248046875,0.930908203125,-0.1925048828125,1.3969465648854962,-10.068702290076336,30.908396946564885,squat
1604240762.8576915,-0.1016845703125,0.978515625,-0.1849365234375,0.007633587786259542,-9.450381679389313,36.14503816793893,squat
1604240762.8976915,-0.0391845703125,0.958740234375,-0.1444091796875,0.9541984732824428,-19.18320610687023,47.083969465648856,squat
1604240762.9376915,0.1005859375,1.015625,-0.1324462890625,-5.8396946564885495,-15.305343511450381,58.12977099236641,squat
1604240762.9776914,0.09619140625,0.97021484375,-0.2178955078125,8.068702290076336,-11.98473282442748,63.31297709923664,squat
1604240763.0176914,0.2314453125,0.85791015625,-0.1629638671875,9.595419847328245,10.259541984732824,63.6412213740458,squat
1604240763.0576913,0.250244140625,0.876953125,-0.2205810546875,10.198473282442748,28.03053435114504,67.00763358778626,squat
1604240763.0976913,0.2763671875,0.859130859375,-0.2608642578125,2.1755725190839694,34.87786259541985,65.98473282442748,squat
1604240763.1376913,0.324462890625,0.794189453125,-0.1580810546875,6.015267175572519,-1.7709923664122138,77.1145038167939,squat
1604240763.1776912,0.337158203125,0.843505859375,-0.1368408203125,8.84732824427481,11.122137404580153,80.22900763358778,squat
1604240763.2176912,0.5126953125,0.822021484375,-0.1593017578125,-5.847328244274809,8.587786259541986,80.76335877862596,squat
1604240763.2576911,0.59765625,0.782958984375,-0.2969970703125,12.816793893129772,10.335877862595419,77.09923664122137,squat
1604240763.297691,0.438232421875,0.7529296875,-0.1475830078125,15.641221374045802,6.732824427480916,72.7557251908397,squat
1604240763.337691,0.529052734375,0.716064453125,-0.2850341796875,22.045801526717558,23.267175572519083,76.47328244274809,squat
1604240763.377691,0.626220703125,0.817626953125,-0.2938232421875,27.12213740458015,11.083969465648854,78.13740458015268,squat
1604240763.417691,0.612060546875,0.74560546875,-0.1129150390625,22.541984732824428,18.106870229007633,74.56488549618321,squat
1604240763.457691,0.73876953125,0.738525390625,-0.2530517578125,26.358778625954198,10.610687022900763,78.65648854961832,squat
1604240763.497691,0.625244140625,0.668212890625,-0.1724853515625,14.641221374045802,5.732824427480916,74.94656488549619,squat
1604240763.5376909,0.83544921875,0.51904296875,-0.2879638671875,20.61832061068702,3.3206106870229006,78.29770992366412,squat
1604240763.5776908,0.782470703125,0.578857421875,-0.2171630859375,19.53435114503817,20.267175572519083,74.29007633587786,squat
1604240763.6176908,0.783935546875,0.56982421875,-0.2601318359375,8.893129770992367,-2.480916030534351,77.93893129770993,squat
1604240763.6576908,1.015380859375,0.520263671875,-0.2833251953125,11.473282442748092,17.38167938931298,69.33587786259542,squat
1604240763.6976907,0.89501953125,0.49951171875,-0.1224365234375,1.83206106870229,21.770992366412212,66.72519083969466,squat
1604240763.7376907,0.926025390625,0.32666015625,-0.3328857421875,20.106870229007633,0.3969465648854962,63.534351145038165,squat
1604240763.7776906,0.962158203125,0.444580078125,-0.2161865234375,11.465648854961833,18.64885496183206,62.0763358778626,squat
1604240763.8176906,1.04931640625,0.450439453125,-0.2452392578125,18.099236641221374,6.473282442748092,53.69465648854962,squat
1604240763.8576906,1.109130859375,0.4248046875,-0.2376708984375,6.190839694656488,17.53435114503817,43.12977099236641,squat
1604240763.8976905,1.100341796875,0.41748046875,-0.2430419921875,2.0610687022900764,14.717557251908397,33.14503816793893,squat
1604240763.9376905,1.12451171875,0.41259765625,-0.1968994140625,0.6259541984732825,7.366412213740458,15.893129770992367,squat
1604240763.9776905,1.22900390625,0.414306640625,-0.3045654296875,-4.0458015267175576,-3.7099236641221376,-1.450381679389313,squat
1604240764.0176904,1.145263671875,0.432373046875,-0.2442626953125,0.3511450381679389,-14.625954198473282,-21.977099236641223,squat
1604240764.0576904,1.211181640625,0.392333984375,-0.2686767578125,-7.099236641221374,-11.0,-39.7557251908397,squat
1604240764.0976903,1.175537109375,0.40869140625,-0.2381591796875,-8.198473282442748,-14.076335877862595,-57.595419847328245,squat
1604240764.1376903,1.087646484375,0.35693359375,-0.2725830078125,-12.687022900763358,-12.870229007633588,-72.65648854961832,squat
1604240764.1776903,1.085205078125,0.4345703125,-0.2706298828125,-2.053435114503817,-27.0381679389313,-80.66412213740458,squat
1604240764.2176902,0.97412109375,0.508056640625,-0.2242431640625,-8.374045801526718,-30.17557251908397,-89.83969465648855,squat
1604240764.2576902,0.96240234375,0.520751953125,-0.2686767578125,-5.358778625954199,-34.31297709923664,-97.26717557251908,squat
1604240764.2976902,0.851806640625,0.5048828125,-0.2386474609375,-13.389312977099237,-42.81679389312977,-102.38167938931298,squat
1604240764.33769,0.782470703125,0.611083984375,-0.3272705078125,-7.67175572519084,-50.82442748091603,-103.55725190839695,squat
1604240764.37769,0.779541015625,0.714599609375,-0.2969970703125,-26.732824427480917,-33.47328244274809,-107.54961832061069,squat
1604240764.41769,0.677490234375,0.68359375,-0.2542724609375,-25.572519083969464,-33.70229007633588,-106.05343511450381,squat
1604240764.45769,0.479736328125,0.732666015625,-0.2740478515625,-25.47328244274809,-29.198473282442748,-109.74809160305344,squat
1604240764.49769,0.482666015625,0.759765625,-0.2459716796875,-28.53435114503817,-34.13740458015267,-104.34351145038168,squat
1604240764.53769,0.4443359375,0.68994140625,-0.2296142578125,-27.793893129770993,-21.435114503816795,-108.2442748091603,squat
1604240764.57769,0.2841796875,0.7900390625,-0.2471923828125,-27.709923664122137,-27.33587786259542,-106.65648854961832,squat
1604240764.6176898,0.357666015625,0.7861328125,-0.1903076171875,-25.51145038167939,-3.763358778625954,-93.82442748091603,squat
1604240764.6576898,0.02392578125,0.7939453125,-0.2645263671875,-22.801526717557252,-30.114503816793892,-91.77099236641222,squat
1604240764.6976898,0.217041015625,0.888916015625,-0.2174072265625,-6.450381679389313,-45.25190839694657,-79.47328244274809,squat
1604240764.7376897,0.235595703125,0.845947265625,-0.2078857421875,-8.65648854961832,-19.763358778625953,-76.90076335877863,squat
1604240764.7776897,0.026611328125,0.78076171875,-0.2808837890625,-5.916030534351145,18.671755725190838,-73.30534351145039,squat
1604240764.8176897,0.12548828125,0.961669921875,-0.1544189453125,-8.458015267175572,39.961832061068705,-69.42748091603053,squat
1604240764.8576896,0.043212890625,0.946533203125,-0.1805419921875,-4.267175572519084,42.0,-53.83969465648855,squat
1604240764.8976896,-0.1905517578125,0.917724609375,-0.1683349609375,-7.625954198473282,44.41984732824427,-41.770992366412216,squat
1604240764.9376895,-0.1920166015625,0.935302734375,-0.1871337890625,2.0763358778625953,13.755725190839694,-21.908396946564885,squat
1604240764.9776895,-0.2164306640625,0.983154296875,-0.1959228515625,2.5572519083969465,16.213740458015266,-20.251908396946565,squat
1604240765.0176895,-0.0482177734375,0.9833984375,-0.1231689453125,6.824427480916031,-14.038167938931299,-16.045801526717558,squat
1604240765.0576894,-0.0223388671875,0.94677734375,-0.2540283203125,1.2290076335877862,9.526717557251908,-6.114503816793893,squat
1604240765.0976894,-0.2242431640625,0.956298828125,-0.1761474609375,1.6870229007633588,16.946564885496183,-5.625954198473282,squat
1604240765.1376894,-0.2684326171875,0.982666015625,-0.2171630859375,3.816793893129771,9.82442748091603,-5.343511450381679,squat
1604240765.1776893,-0.1815185546875,0.964599609375,-0.2169189453125,5.473282442748092,-4.213740458015267,-3.66412213740458,squat
1604240765.2176893,-0.1517333984375,0.95947265625,-0.2166748046875,2.099236641221374,17.297709923664122,-3.8473282442748094,squat
1604240765.2576892,-0.2794189453125,0.956298828125,-0.2281494140625,5.603053435114504,10.17557251908397,1.2748091603053435,squat
1604240765.2976892,-0.2237548828125,0.96142578125,-0.2003173828125,5.694656488549619,-1.6030534351145038,3.6412213740458017,squat
1604240765.3376892,-0.1754150390625,0.968505859375,-0.1898193359375,6.198473282442748,4.99236641221374,7.0,squat
1604240765.3776891,-0.1876220703125,0.9443359375,-0.2301025390625,-2.931297709923664,4.267175572519084,13.305343511450381,squat
1604240765.417689,-0.2081298828125,0.95703125,-0.2022705078125,-0.13740458015267176,-5.770992366412214,17.27480916030534,squat
1604240765.457689,-0.2081298828125,0.9423828125,-0.1903076171875,-6.740458015267175,-8.50381679389313,26.954198473282442,squat
1604240765.497689,-0.1483154296875,0.949951171875,-0.2288818359375,-6.0534351145038165,-23.396946564885496,34.19083969465649,squat
1604240765.537689,-0.0780029296875,0.956787109375,-0.1932373046875,-4.2748091603053435,-15.557251908396946,47.404580152671755,squat
1604240765.577689,-0.0753173828125,0.9267578125,-0.1771240234375,1.5572519083969465,-31.52671755725191,54.83206106870229,squat
1604240765.617689,-0.0413818359375,0.94384765625,-0.0975341796875,-10.099236641221374,-22.885496183206108,72.08396946564885,squat
1604240765.6576889,0.1513671875,0.97705078125,-0.1302490234375,-2.2748091603053435,-14.038167938931299,68.66412213740458,squat
1604240765.6976888,0.10107421875,0.9365234375,-0.2916259765625,0.007633587786259542,4.801526717557252,64.51908396946565,squat
1604240765.7376888,0.2421875,0.93798828125,-0.2159423828125,-3.2900763358778624,25.717557251908396,61.01526717557252,squat
1604240765.7776887,0.347412109375,0.8759765625,-0.1732177734375,6.709923664122138,33.541984732824424,63.74045801526717,squat
1604240765.8176887,0.323974609375,0.851318359375,-0.1815185546875,-14.580152671755725,29.46564885496183,85.68702290076335,squat
1604240765.8576887,0.29833984375,0.762451171875,-0.1524658203125,12.748091603053435,3.145038167938931,81.61832061068702,squat
1604240765.8976886,0.251220703125,0.8408203125,-0.2291259765625,19.106870229007633,-41.61068702290076,82.9618320610687,squat
1604240765.9376886,0.516357421875,0.81005859375,-0.2200927734375,15.053435114503817,-1.4198473282442747,89.31297709923665,squat
1604240765.9776886,0.398681640625,0.74462890625,-0.0994873046875,1.5648854961832062,5.900763358778626,81.05343511450381,squat
1604240766.0176885,0.572021484375,0.7998046875,-0.2537841796875,15.274809160305344,-10.877862595419847,81.63358778625954,squat
1604240766.0576885,0.56787109375,0.81494140625,-0.2786865234375,24.076335877862597,6.740458015267175,76.6412213740458,squat
1604240766.0976884,0.657470703125,0.702880859375,-0.2930908203125,25.03053435114504,0.366412213740458,74.16793893129771,squat
1604240766.1376884,0.7646484375,0.72021484375,-0.2247314453125,22.557251908396946,34.83969465648855,64.93129770992367,squat
1604240766.1776884,0.53515625,0.781494140625,-0.1434326171875,23.19083969465649,18.396946564885496,65.77862595419847,squat
1604240766.2176883,0.836669921875,0.626953125,-0.1837158203125,12.534351145038167,8.702290076335878,68.77862595419847,squat
1604240766.2576883,0.72705078125,0.66943359375,-0.2420654296875,18.549618320610687,25.083969465648856,64.16030534351145,squat
1604240766.2976882,0.87841796875,0.591796875,-0.2005615234375,13.717557251908397,4.33587786259542,68.02290076335878,squat
1604240766.3376882,0.7900390625,0.652587890625,-0.2203369140625,11.885496183206106,19.82442748091603,61.11450381679389,squat
1604240766.3776882,0.98095703125,0.4912109375,-0.2572021484375,2.946564885496183,25.15267175572519,61.0,squat
1604240766.4176881,0.818115234375,0.57275390625,-0.2506103515625,9.557251908396946,14.778625954198473,57.19083969465649,squat
1604240766.457688,1.013671875,0.4345703125,-0.2471923828125,9.854961832061068,8.854961832061068,52.82442748091603,squat
1604240766.497688,0.921142578125,0.4599609375,-0.2213134765625,10.893129770992367,18.129770992366414,51.465648854961835,squat
1604240766.537688,1.015869140625,0.446044921875,-0.2047119140625,5.961832061068702,3.404580152671756,48.458015267175576,squat
1604240766.577688,1.029541015625,0.45703125,-0.2144775390625,7.580152671755725,23.52671755725191,37.61068702290076,squat
1604240766.617688,1.04296875,0.414306640625,-0.1815185546875,3.4427480916030535,9.244274809160306,32.6412213740458,squat
1604240766.657688,1.02587890625,0.40576171875,-0.2366943359375,3.480916030534351,10.82442748091603,24.358778625954198,squat
1604240766.6976879,1.18701171875,0.4013671875,-0.2823486328125,3.3969465648854964,0.8015267175572519,11.435114503816793,squat
1604240766.7376878,1.152587890625,0.448974609375,-0.2781982421875,-0.21374045801526717,-3.4885496183206106,-7.091603053435114,squat
1604240766.7776878,1.24951171875,0.44921875,-0.2142333984375,-1.8015267175572518,-17.50381679389313,-26.19083969465649,squat
1604240766.8176877,1.180908203125,0.47607421875,-0.2161865234375,-6.641221374045801,-14.82442748091603,-45.30534351145038,squat
1604240766.8576877,1.16748046875,0.529296875,-0.2296142578125,-11.358778625954198,-24.549618320610687,-62.9236641221374,squat
1604240766.8976877,1.115234375,0.392822265625,-0.2738037109375,-10.870229007633588,-25.0381679389313,-78.38931297709924,squat
1604240766.9376876,0.966064453125,0.438720703125,-0.3221435546875,-2.801526717557252,-29.251908396946565,-89.12977099236642,squat
1604240766.9776876,0.938720703125,0.47314453125,-0.2725830078125,10.725190839694656,-39.31297709923664,-99.17557251908397,squat
1604240767.0176876,0.88330078125,0.64990234375,-0.2364501953125,-9.297709923664122,-34.916030534351144,-100.80916030534351,squat
1604240767.0576875,0.76953125,0.66552734375,-0.2159423828125,-13.755725190839694,-48.20610687022901,-101.79389312977099,squat
1604240767.0976875,0.720458984375,0.73779296875,-0.2476806640625,-31.64885496183206,-48.02290076335878,-102.7175572519084,squat
1604240767.1376874,0.6142578125,0.709716796875,-0.3519287109375,-30.48854961832061,-41.86259541984733,-107.6030534351145,squat
1604240767.1776874,0.570556640625,0.682373046875,-0.3214111328125,-29.38167938931298,-30.47328244274809,-109.82442748091603,squat
1604240767.2176874,0.47705078125,0.676513671875,-0.2315673828125,-32.83206106870229,-19.954198473282442,-113.26717557251908,squat
1604240767.2576873,0.389892578125,0.7001953125,-0.1771240234375,-23.389312977099237,-29.083969465648856,-115.61068702290076,squat
1604240767.2976873,0.39306640625,0.800048828125,-0.1087646484375,-35.603053435114504,-12.206106870229007,-111.66412213740458,squat
1604240767.3376873,0.244384765625,0.83642578125,-0.2716064453125,-29.068702290076335,-34.099236641221374,-105.25190839694656,squat
1604240767.3776872,0.12744140625,0.8212890625,-0.2332763671875,-25.480916030534353,-27.396946564885496,-94.06870229007633,squat
1604240767.4176872,0.05224609375,0.7587890625,-0.2437744140625,-5.442748091603053,-49.404580152671755,-87.92366412213741,squat
1604240767.4576871,0.353515625,0.861083984375,-0.3087158203125,-8.49618320610687,9.65648854961832,-71.86259541984732,squat
1604240767.497687,0.4130859375,1.05517578125,-0.1612548828125,-5.7251908396946565,15.51908396946565,-71.90839694656489,squat
1604240767.537687,0.185302734375,0.978271484375,-0.1143798828125,-9.442748091603054,45.29007633587786,-54.083969465648856,squat
1604240767.577687,0.103515625,0.984619140625,-0.1463623046875,-8.335877862595419,23.099236641221374,-33.770992366412216,squat
1604240767.617687,-0.1353759765625,0.91943359375,-0.2271728515625,-2.312977099236641,42.30534351145038,-30.30534351145038,squat
1604240767.657687,-0.2762451171875,0.96533203125,-0.1912841796875,-2.7404580152671754,44.02290076335878,-27.412213740458014,squat
1604240767.697687,-0.1961669921875,0.96142578125,-0.1297607421875,10.007633587786259,2.16793893129771,-34.38931297709924,squat
1604240767.7376869,0.015380859375,0.948486328125,-0.2103271484375,1.6870229007633588,11.473282442748092,-20.51145038167939,squat
1604240767.7776868,-0.0367431640625,0.910400390625,-0.2501220703125,3.030534351145038,16.0381679389313,-13.099236641221374,squat
1604240767.8176868,-0.2242431640625,0.962646484375,-0.2142333984375,5.038167938931298,21.206106870229007,-12.0,squat
1604240767.8576868,-0.2132568359375,0.988525390625,-0.1593017578125,4.9465648854961835,-4.877862595419847,-6.396946564885496,squat
1604240767.8976867,-0.1949462890625,0.952392578125,-0.2100830078125,2.595419847328244,-1.4122137404580153,-8.068702290076336,squat
1604240767.9376867,-0.1563720703125,0.9638671875,-0.1944580078125,4.816793893129771,12.068702290076336,-10.061068702290076,squat
1604240767.9776866,-0.2572021484375,0.9560546875,-0.1954345703125,4.4961832061068705,2.6946564885496183,-3.6564885496183206,squat
1604240768.0176866,-0.2369384765625,0.97119140625,-0.2047119140625,4.8320610687022905,-0.8931297709923665,2.9389312977099236,squat
1604240768.0576866,-0.1734619140625,0.94775390625,-0.2423095703125,3.6793893129770994,-6.824427480916031,6.587786259541985,squat
1604240768.0976865,-0.1827392578125,0.962646484375,-0.2088623046875,2.6717557251908395,2.450381679389313,11.717557251908397,squat
1604240768.1376865,-0.2325439453125,0.9482421875,-0.2239990234375,1.618320610687023,0.7404580152671756,13.396946564885496,squat
1604240768.1776865,-0.2147216796875,0.942138671875,-0.2042236328125,2.687022900763359,-7.236641221374046,16.732824427480917,squat
1604240768.2176864,-0.1844482421875,0.978271484375,-0.1761474609375,-4.221374045801527,-7.648854961832061,23.450381679389313,squat
1604240768.2576864,-0.1400146484375,0.941650390625,-0.1929931640625,-3.931297709923664,-17.244274809160306,33.56488549618321,squat
1604240768.2976863,-0.1944580078125,0.912353515625,-0.1737060546875,-5.015267175572519,-20.198473282442748,41.847328244274806,squat
1604240768.3376863,-0.1287841796875,0.951171875,-0.1546630859375,-1.083969465648855,-36.603053435114504,58.3206106870229,squat
1604240768.3776863,-0.0196533203125,0.941162109375,-0.1900634765625,-1.5114503816793894,-5.648854961832061,64.35114503816794,squat
1604240768.4176862,0.098388671875,0.997802734375,-0.2166748046875,6.526717557251908,-5.625954198473282,59.404580152671755,squat
1604240768.4576862,0.10107421875,0.94091796875,-0.2921142578125,2.0229007633587788,28.221374045801525,62.9236641221374,squat
1604240768.4976861,0.134033203125,0.875,-0.2891845703125,0.05343511450381679,16.0,57.17557251908397,squat
1604240768.537686,0.345703125,0.940185546875,-0.1990966796875,5.816793893129771,20.31297709923664,56.74045801526717,squat
1604240768.577686,0.16455078125,0.90380859375,-0.1934814453125,7.969465648854962,33.770992366412216,65.87786259541984,squat
1604240768.617686,0.423828125,0.875732421875,-0.1422119140625,3.8091603053435112,17.80916030534351,72.36641221374046,squat
1604240768.657686,0.38916015625,0.87890625,-0.2738037109375,10.931297709923664,-7.343511450381679,75.80152671755725,squat
1604240768.697686,0.277099609375,0.722900390625,-0.2183837890625,2.885496183206107,-10.740458015267176,81.67175572519083,squat
1604240768.737686,0.579345703125,0.744384765625,-0.1800537109375,11.450381679389313,-9.32824427480916,83.00763358778626,squat
1604240768.7776859,0.548095703125,0.893310546875,-0.3472900390625,12.49618320610687,0.9312977099236641,80.09160305343511,squat
1604240768.8176858,0.430419921875,0.738037109375,-0.2647705078125,27.66412213740458,-5.259541984732825,72.20610687022901,squat
1604240768.8576858,0.638671875,0.782958984375,-0.2279052734375,19.022900763358777,8.908396946564885,71.93129770992367,squat
1604240768.8976858,0.63232421875,0.822265625,-0.2747802734375,15.725190839694656,24.595419847328245,69.65648854961832,squat
1604240768.9376857,0.614990234375,0.670166015625,-0.2486572265625,18.38167938931298,-2.9236641221374047,73.61832061068702,squat
1604240768.9776857,0.727783203125,0.73291015625,-0.2996826171875,14.679389312977099,27.793893129770993,64.7175572519084,squat
1604240769.0176857,0.7392578125,0.64892578125,-0.2784423828125,14.511450381679388,18.083969465648856,70.34351145038168,squat
1604240769.0576856,0.713134765625,0.591796875,-0.2384033203125,16.64885496183206,14.916030534351146,67.25954198473282,squat
1604240769.0976856,0.87255859375,0.6279296875,-0.2183837890625,13.854961832061068,12.213740458015268,68.66412213740458,squat
1604240769.1376855,0.853759765625,0.5859375,-0.2757568359375,4.473282442748092,25.49618320610687,62.55725190839695,squat
1604240769.1776855,0.7998046875,0.501708984375,-0.2481689453125,9.618320610687023,15.007633587786259,62.030534351145036,squat
1604240769.2176855,0.885498046875,0.454833984375,-0.2855224609375,15.694656488549619,10.13740458015267,64.49618320610686,squat
1604240769.2576854,0.98095703125,0.424072265625,-0.2567138671875,15.580152671755725,11.564885496183207,60.35114503816794,squat
1604240769.2976854,0.978759765625,0.470947265625,-0.1990966796875,11.641221374045802,18.946564885496183,53.091603053435115,squat
1604240769.3376853,0.987060546875,0.39892578125,-0.2603759765625,5.809160305343512,19.801526717557252,52.56488549618321,squat
1604240769.3776853,1.061279296875,0.517333984375,-0.2379150390625,9.86259541984733,8.404580152671755,41.83969465648855,squat
1604240769.4176853,1.12255859375,0.418701171875,-0.2193603515625,10.106870229007633,10.099236641221374,30.603053435114504,squat
1604240769.4576852,1.106689453125,0.424072265625,-0.2310791015625,2.2519083969465647,0.2595419847328244,19.572519083969464,squat
1604240769.4976852,1.184814453125,0.4404296875,-0.2801513671875,0.0,-4.33587786259542,2.3969465648854964,squat
1604240769.5376852,1.185302734375,0.43310546875,-0.3070068359375,-0.32061068702290074,-14.49618320610687,-17.435114503816795,squat
1604240769.577685,1.17822265625,0.4541015625,-0.2515869140625,-1.2290076335877862,-14.267175572519085,-38.969465648854964,squat
1604240769.617685,1.14013671875,0.423583984375,-0.2469482421875,-7.267175572519084,-16.580152671755727,-53.29770992366412,squat
1604240769.657685,1.10009765625,0.4736328125,-0.3031005859375,-8.320610687022901,-22.603053435114504,-69.70229007633588,squat
1604240769.697685,1.019775390625,0.40185546875,-0.2288818359375,-3.6564885496183206,-23.931297709923665,-79.94656488549619,squat
1604240769.737685,0.9873046875,0.484619140625,-0.2633056640625,-0.9007633587786259,-44.221374045801525,-87.70992366412214,squat
1604240769.777685,0.9638671875,0.53564453125,-0.2755126953125,-10.954198473282442,-33.900763358778626,-93.77862595419847,squat
1604240769.817685,0.83203125,0.59619140625,-0.2803955078125,-13.67175572519084,-44.32824427480916,-96.86259541984732,squat
1604240769.8576849,0.795654296875,0.6318359375,-0.3524169921875,-16.64885496183206,-49.83969465648855,-100.68702290076335,squat
1604240769.8976848,0.7265625,0.73876953125,-0.3292236328125,-30.0,-36.79389312977099,-102.87022900763358,squat
1604240769.9376848,0.601318359375,0.727783203125,-0.2779541015625,-31.72519083969466,-27.374045801526716,-105.43511450381679,squat
1604240769.9776847,0.501953125,0.79052734375,-0.2777099609375,-36.48854961832061,-30.908396946564885,-99.93893129770993,squat
1604240770.0176847,0.42724609375,0.69140625,-0.2479248046875,-32.603053435114504,-23.48854961832061,-100.68702290076335,squat
1604240770.0576847,0.416015625,0.690673828125,-0.2872314453125,-25.18320610687023,-32.267175572519086,-98.7175572519084,squat
1604240770.0976846,0.356689453125,0.65966796875,-0.2471923828125,-14.633587786259541,-19.87786259541985,-100.10687022900764,squat
1604240770.1376846,0.322021484375,0.811767578125,-0.2584228515625,-24.282442748091604,-18.34351145038168,-95.41984732824427,squat
1604240770.1776845,0.365478515625,0.8154296875,-0.1778564453125,-10.022900763358779,-17.045801526717558,-87.08396946564885,squat
1604240770.2176845,0.151123046875,0.855712890625,-0.1632080078125,-21.03053435114504,-13.687022900763358,-81.82442748091603,squat
1604240770.2576845,0.148193359375,0.917724609375,-0.1424560546875,-11.564885496183207,-30.412213740458014,-72.40458015267176,squat
1604240770.2976844,0.277099609375,0.876220703125,-0.1988525390625,-9.404580152671755,7.022900763358779,-65.55725190839695,squat
1604240770.3376844,0.1005859375,0.9873046875,-0.1492919921875,-16.671755725190838,6.419847328244275,-56.06106870229008,squat
1604240770.3776844,0.114501953125,0.997314453125,-0.1505126953125,-8.290076335877863,38.83969465648855,-66.82442748091603,squat
1604240770.4176843,-0.0308837890625,0.95263671875,-0.1556396484375,-6.534351145038168,41.091603053435115,-58.412213740458014,squat
1604240770.4576843,-0.0665283203125,0.91259765625,-0.1866455078125,-1.8931297709923665,43.76335877862596,-39.412213740458014,squat
1604240770.4976842,-0.2081298828125,0.943115234375,-0.1500244140625,1.0,14.564885496183207,-22.603053435114504,squat
1604240770.5376842,-0.2186279296875,0.946044921875,-0.1563720703125,0.4198473282442748,-10.770992366412214,-8.404580152671755,squat
1604240770.5776842,-0.1214599609375,0.955322265625,-0.1849365234375,0.015267175572519083,-18.885496183206108,-5.595419847328245,squat
1604240770.6176841,-0.1204833984375,1.003173828125,-0.2061767578125,-2.969465648854962,-0.3511450381679389,-6.061068702290076,squat
1604240770.657684,-0.1820068359375,0.9697265625,-0.1707763671875,-0.32061068702290074,6.961832061068702,-9.50381679389313,squat
1604240770.697684,-0.1549072265625,0.933349609375,-0.2218017578125,5.0458015267175576,12.48091603053435,-12.259541984732824,squat
