accel_x,accel_y,accel_z,gyro_x,gyro_y,gyro_z,label
1604241000.063913,-0.1165771484375,0.894775390625,-0.3951416015625,12.419847328244275,-53.51145038167939,0.7862595419847328,walk
1604241000.103913,-0.0753173828125,0.87841796875,-0.4691162109375,7.412213740458015,-43.66412213740458,10.618320610687023,walk
1604241000.143913,-0.1678466796875,0.992431640625,-0.4183349609375,-1.702290076335878,-48.3206106870229,23.03053435114504,walk
1604241000.183913,-0.1007080078125,1.182373046875,-0.4127197265625,-3.1297709923664123,-67.87022900763358,49.81679389312977,walk
1604241000.223913,0.2890625,1.26416015625,-0.3660888671875,-38.282442748091604,-79.93129770992367,108.57251908396947,walk
1604241000.263913,0.29931640625,1.26953125,0.244384765625,-45.343511450381676,-77.20610687022901,167.65648854961833,walk
1604241000.3039129,-0.4578857421875,1.217529296875,-0.0909423828125,-12.946564885496183,-138.96946564885496,166.6946564885496,walk
1604241000.3439128,-0.4730224609375,1.1591796875,-0.1756591796875,25.16793893129771,-186.45801526717557,138.54198473282443,walk
1604241000.3839128,-0.0242919921875,0.83544921875,-0.2567138671875,41.19847328244275,-152.5114503816794,128.5801526717557,walk
1604241000.4239128,0.156982421875,0.873779296875,-0.3204345703125,35.213740458015266,-44.29770992366412,104.46564885496183,walk
1604241000.4639127,0.1962890625,0.8134765625,-0.2073974609375,29.61832061068702,18.076335877862597,77.86259541984732,walk
1604241000.5039127,0.011962890625,0.683837890625,-0.1080322265625,7.67175572519084,62.18320610687023,28.84732824427481,walk
1604241000.5439126,-0.2132568359375,0.698486328125,0.004150390625,6.152671755725191,38.267175572519086,-3.931297709923664,walk
1604241000.5839126,-0.3900146484375,0.755615234375,-0.0450439453125,-12.007633587786259,-50.35114503816794,-23.61832061068702,walk
1604241000.6239126,-0.0318603515625,0.957763671875,-0.1207275390625,-48.458015267175576,-95.8473282442748,-46.97709923664122,walk
1604241000.6639125,0.865478515625,1.0986328125,-0.4898681640625,-3.4732824427480917,-135.9236641221374,-13.82442748091603,walk
1604241000.7039125,0.96044921875,0.985595703125,-0.6649169921875,8.564885496183207,-102.25954198473282,4.488549618320611,walk
1604241000.7439125,0.09814453125,0.980224609375,-0.2894287109375,18.84732824427481,-60.656488549618324,-24.96946564885496,walk
1604241000.7839124,0.04541015625,1.1435546875,-0.0823974609375,-21.755725190839694,-14.061068702290076,-69.9618320610687,walk
1604241000.8239124,0.564208984375,0.997314453125,-0.4232177734375,43.267175572519086,-65.9618320610687,-20.221374045801525,walk
1604241000.8639123,-0.4146728515625,0.8154296875,-0.0728759765625,-14.427480916030534,12.557251908396946,-38.54961832061068,walk
1604241000.9039123,-0.3853759765625,0.76708984375,-0.2293701171875,-6.748091603053435,-161.70992366412213,-28.16030534351145,walk
1604241000.9439123,0.038330078125,1.06103515625,-0.8624267578125,-1.8625954198473282,8.587786259541986,-40.64885496183206,walk
1604241000.9839122,-0.0335693359375,0.92041015625,-0.3121337890625,-10.709923664122137,-14.312977099236642,-45.70992366412214,walk
1604241001.0239122,-0.0643310546875,0.913330078125,-0.4671630859375,-2.2213740458015265,-46.61832061068702,-26.603053435114504,walk
1604241001.0639122,0.049072265625,0.8408203125,-0.3992919921875,5.366412213740458,-56.6412213740458,-12.709923664122137,walk
1604241001.103912,0.092041015625,0.86376953125,-0.3414306640625,5.3893129770992365,-44.70229007633588,-10.793893129770993,walk
1604241001.143912,0.00439453125,0.93115234375,-0.2493896484375,0.3893129770992366,-20.00763358778626,-19.9618320610687,walk
1604241001.183912,-0.2237548828125,0.920654296875,-0.1007080078125,-6.1603053435114505,-13.099236641221374,-24.64885496183206,walk
1604241001.223912,-0.0882568359375,0.93701171875,-0.3116455078125,-0.6946564885496184,-4.442748091603053,-35.16030534351145,walk
1604241001.263912,0.0595703125,0.966796875,-0.2850341796875,-0.5419847328244275,-3.9618320610687023,-35.099236641221374,walk
1604241001.303912,0.020751953125,0.909912109375,-0.4559326171875,-9.931297709923664,5.038167938931298,-22.81679389312977,walk
1604241001.343912,0.084228515625,0.90576171875,-0.5455322265625,-7.9541984732824424,6.480916030534351,-2.2977099236641223,walk
1604241001.3839118,0.306396484375,1.131591796875,-0.5325927734375,-31.946564885496183,-8.267175572519085,36.43511450381679,walk
1604241001.4239118,0.662109375,1.30810546875,-0.3509521484375,-63.97709923664122,1.6564885496183206,100.44274809160305,walk
1604241001.4639118,0.111083984375,1.1875,-0.2098388671875,-20.480916030534353,18.61832061068702,157.793893129771,walk
1604241001.5039117,-0.6817626953125,1.390380859375,-0.4771728515625,8.259541984732824,0.40458015267175573,113.37404580152672,walk
1604241001.5439117,-0.2769775390625,1.093505859375,-0.3780517578125,37.916030534351144,-60.213740458015266,139.4351145038168,walk
1604241001.5839117,0.09326171875,0.867431640625,-0.3433837890625,71.27480916030534,-15.01526717557252,92.44274809160305,walk
1604241001.6239116,0.0908203125,0.8740234375,-0.1153564453125,62.534351145038165,75.9618320610687,59.725190839694655,walk
1604241001.6639116,-0.0467529296875,0.791748046875,-0.1368408203125,60.93893129770992,121.1145038167939,24.954198473282442,walk
1604241001.7039115,-0.1500244140625,0.60302734375,-0.1207275390625,44.3587786259542,115.42748091603053,-22.389312977099237,walk
1604241001.7439115,-0.6241455078125,0.7236328125,-0.2183837890625,35.29007633587786,28.244274809160306,-48.221374045801525,walk
1604241001.7839115,-0.7254638671875,0.831298828125,-0.1036376953125,29.061068702290076,-66.62595419847328,-59.55725190839695,walk
1604241001.8239114,0.081787109375,1.067626953125,-0.0521240234375,-4.99236641221374,-77.51908396946565,-53.458015267175576,walk
1604241001.8639114,1.32568359375,1.284912109375,-0.7249755859375,37.43511450381679,-145.3740458015267,6.66412213740458,walk
1604241001.9039114,0.600341796875,1.11181640625,-0.7862548828125,31.946564885496183,-29.87786259541985,7.4961832061068705,walk
1604241001.9439113,-0.2127685546875,0.842529296875,-0.1077880859375,-3.4198473282442747,2.8244274809160306,-35.030534351145036,walk
1604241001.9839113,-0.3956298828125,1.22900390625,-0.0042724609375,-36.61068702290076,-24.740458015267176,-91.3587786259542,walk
1604241002.0239112,0.642578125,0.613037109375,-0.6485595703125,60.97709923664122,-117.29770992366412,2.404580152671756,walk
1604241002.0639112,-0.1490478515625,0.730712890625,-0.0958251953125,-5.145038167938932,40.11450381679389,-55.31297709923664,walk
1604241002.1039112,-0.3685302734375,0.925537109375,0.044189453125,-16.923664122137403,-119.29007633587786,-37.55725190839695,walk
1604241002.1439111,-0.1824951171875,0.846923828125,-0.9608154296875,14.389312977099237,10.274809160305344,-41.82442748091603,walk
1604241002.183911,-0.0399169921875,0.923095703125,-0.2535400390625,-6.931297709923665,-40.38167938931298,-37.01526717557252,walk
1604241002.223911,-0.1185302734375,0.83056640625,-0.3365478515625,16.435114503816795,-40.06106870229008,-21.572519083969464,walk
1604241002.263911,-0.1580810546875,0.934326171875,-0.3426513671875,3.282442748091603,-75.74809160305344,-10.923664122137405,walk
1604241002.303911,-0.0577392578125,0.8701171875,-0.4329833984375,7.923664122137405,-50.221374045801525,-17.022900763358777,walk
1604241002.343911,-0.0906982421875,0.92138671875,-0.3751220703125,4.404580152671755,-40.152671755725194,-22.977099236641223,walk
1604241002.383911,-0.0025634765625,0.8740234375,-0.3626708984375,10.679389312977099,-41.282442748091604,-17.34351145038168,walk
1604241002.4239109,0.084716796875,0.9111328125,-0.3704833984375,11.458015267175572,-49.48091603053435,1.0458015267175573,walk
1604241002.4639108,-0.0421142578125,0.9580078125,-0.3524169921875,9.625954198473282,-41.14503816793893,12.801526717557252,walk
1604241002.5039108,0.046630859375,0.9814453125,-0.4608154296875,-6.99236641221374,-45.83206106870229,31.419847328244273,walk
1604241002.5439107,0.17529296875,1.251953125,-0.4893798828125,-28.16030534351145,-27.557251908396946,64.01526717557252,walk
1604241002.5839107,0.942138671875,1.462158203125,-0.1744384765625,-83.3587786259542,-46.82442748091603,159.70229007633588,walk
1604241002.6239107,0.44091796875,1.22021484375,0.121826171875,-46.282442748091604,-19.954198473282442,196.3969465648855,walk
1604241002.6639106,-1.5474853515625,1.309814453125,-0.5631103515625,28.770992366412212,-110.92366412213741,134.3053435114504,walk
1604241002.7039106,0.481201171875,0.877685546875,-0.9910888671875,23.435114503816795,-16.748091603053435,172.38931297709922,walk
1604241002.7439106,0.177734375,0.69873046875,-0.4332275390625,39.786259541984734,13.648854961832061,94.41984732824427,walk
1604241002.7839105,-0.1922607421875,0.614990234375,-0.2933349609375,46.76335877862596,92.00763358778626,37.36641221374046,walk
1604241002.8239105,-0.0216064453125,0.440673828125,-0.1658935546875,45.17557251908397,122.19847328244275,-38.038167938931295,walk
1604241002.8639104,-0.3157958984375,0.56982421875,-0.1956787109375,37.595419847328245,82.92366412213741,-102.77862595419847,walk
1604241002.9039104,-0.1417236328125,1.005615234375,0.41015625,-67.22900763358778,144.3969465648855,-118.17557251908397,walk
1604241002.9439104,1.30712890625,1.4375,-0.3333740234375,-84.69465648854961,123.32824427480917,-28.290076335877863,walk
1604241002.9839103,0.3740234375,0.742431640625,-0.5733642578125,68.54198473282443,32.74045801526717,12.801526717557252,walk
1604241003.0239103,-1.0445556640625,0.876708984375,0.1171875,-50.656488549618324,79.66412213740458,-81.17557251908397,walk
1604241003.0639102,1.040283203125,1.99993896484375,-0.8468017578125,-44.02290076335878,31.53435114503817,23.236641221374047,walk
1604241003.1039102,-0.9508056640625,0.33984375,0.11669921875,-42.81679389312977,74.80152671755725,-67.55725190839695,walk
1604241003.1439102,0.324462890625,1.12841796875,-0.4039306640625,-9.122137404580153,-8.709923664122137,-61.49618320610687,walk
1604241003.1839101,-0.1712646484375,0.888427734375,-0.3294677734375,-5.9465648854961835,9.938931297709924,-80.7175572519084,walk
1604241003.22391,0.02978515625,0.962646484375,-0.3201904296875,-0.6793893129770993,12.778625954198473,-88.74045801526718,walk
1604241003.26391,0.022705078125,0.8837890625,-0.2445068359375,-5.587786259541985,33.6793893129771,-94.10687022900764,walk
1604241003.30391,0.087646484375,0.904541015625,-0.2296142578125,-5.580152671755725,63.70992366412214,-82.74045801526718,walk
1604241003.34391,-0.0125732421875,0.884765625,-0.2657470703125,-3.7709923664122136,64.76335877862596,-69.49618320610686,walk
1604241003.38391,-0.2171630859375,0.932861328125,-0.2489013671875,-7.488549618320611,49.0,-63.10687022900763,walk
1604241003.42391,-0.1341552734375,0.93359375,-0.4722900390625,-7.595419847328245,30.389312977099237,-57.954198473282446,walk
1604241003.4639099,0.025146484375,1.016845703125,-0.3526611328125,-13.82442748091603,47.38167938931298,-51.6793893129771,walk
1604241003.5039098,0.077880859375,1.050048828125,-0.4285888671875,-33.954198473282446,44.916030534351144,-28.64885496183206,walk
1604241003.5439098,0.173583984375,1.238525390625,-0.5286865234375,-38.63358778625954,36.25190839694657,3.3893129770992365,walk
1604241003.5839097,0.57275390625,1.28857421875,-0.4454345703125,-89.03053435114504,27.236641221374047,99.95419847328245,walk
1604241003.6239097,0.694091796875,0.895751953125,-0.3426513671875,-47.045801526717554,66.93893129770993,146.23664122137404,walk
1604241003.6639097,-0.0308837890625,1.405029296875,-0.5921630859375,12.83969465648855,122.49618320610686,127.2824427480916,walk
1604241003.7039096,-0.6536865234375,1.295166015625,-0.4161376953125,25.83969465648855,64.77099236641222,125.62595419847328,walk
1604241003.7439096,-0.2669677734375,0.978515625,-0.4588623046875,59.3587786259542,51.93129770992366,131.32824427480915,walk
1604241003.7839096,0.034912109375,0.94677734375,-0.2542724609375,80.81679389312977,110.58015267175573,102.30534351145039,walk
1604241003.8239095,-0.1583251953125,0.8505859375,-0.0836181640625,85.97709923664122,112.22137404580153,67.25190839694656,walk
1604241003.8639095,-0.0133056640625,0.702880859375,0.0087890625,69.04580152671755,161.24427480916032,12.427480916030534,walk
1604241003.9039094,-0.4754638671875,0.651611328125,-0.1802978515625,71.30534351145039,100.53435114503817,-29.870229007633586,walk
1604241003.9439094,-0.6849365234375,0.745361328125,-0.1082763671875,52.404580152671755,-5.885496183206107,-53.02290076335878,walk
1604241003.9839094,-0.2193603515625,0.851806640625,0.2314453125,3.9389312977099236,13.083969465648854,-107.07633587786259,walk
1604241004.0239093,0.830322265625,1.34130859375,0.005126953125,-41.6412213740458,-82.45038167938931,-21.053435114503817,walk
1604241004.0639093,1.35400390625,0.996337890625,-0.6727294921875,72.90839694656489,46.16793893129771,26.106870229007633,walk
1604241004.1039093,-0.4024658203125,1.603759765625,-0.2381591796875,-4.404580152671755,-92.47328244274809,-20.641221374045802,walk
1604241004.1439092,1.10302734375,1.0283203125,-0.5545654296875,-116.66412213740458,217.9770992366412,-6.969465648854962,walk
1604241004.1839092,-1.1163330078125,0.791748046875,0.544677734375,-42.045801526717554,99.69465648854961,-35.57251908396947,walk
1604241004.2239091,0.212890625,1.09130859375,-0.3651123046875,2.595419847328244,-77.29007633587786,-97.6412213740458,walk
1604241004.263909,-0.0943603515625,0.88818359375,-0.3773193359375,-18.022900763358777,-10.83206106870229,-78.29007633587786,walk
1604241004.303909,-0.1038818359375,0.82470703125,-0.4927978515625,4.572519083969466,-22.435114503816795,-88.3969465648855,walk
1604241004.343909,-0.1556396484375,0.911376953125,-0.3062744140625,2.0763358778625953,-17.16793893129771,-88.27480916030534,walk
1604241004.383909,-0.0428466796875,0.856201171875,-0.3345947265625,4.1603053435114505,-16.061068702290076,-86.45038167938931,walk
1604241004.423909,0.00146484375,0.8544921875,-0.3321533203125,10.725190839694656,2.6030534351145036,-71.23664122137404,walk
1604241004.463909,-0.0325927734375,0.879150390625,-0.2972412109375,-3.1755725190839694,-3.1297709923664123,-55.93893129770992,walk
1604241004.5039089,-0.0098876953125,0.906494140625,-0.3778076171875,0.183206106870229,1.2213740458015268,-48.29007633587786,walk
1604241004.5439088,-0.1256103515625,0.96923828125,-0.2811279296875,3.2595419847328246,-46.67175572519084,-39.961832061068705,walk
1604241004.5839088,0.074462890625,1.019287109375,-0.3690185546875,-10.648854961832061,-31.206106870229007,-27.72519083969466,walk
1604241004.6239088,-0.0401611328125,1.088134765625,-0.4586181640625,-25.480916030534353,12.267175572519085,-11.900763358778626,walk
1604241004.6639087,0.15576171875,1.221923828125,-0.4898681640625,-26.793893129770993,-17.267175572519083,24.6793893129771,walk
1604241004.7039087,0.8359375,1.36669921875,-0.3841552734375,-82.76335877862596,-24.51145038167939,125.12977099236642,walk
1604241004.7439086,0.509765625,1.09521484375,-0.1253662109375,-54.36641221374046,26.984732824427482,185.66412213740458,walk
1604241004.7839086,-0.8326416015625,1.67578125,-0.7796630859375,35.47328244274809,-39.54961832061068,130.74045801526717,walk
1604241004.8239086,0.01123046875,0.8984375,0.251220703125,138.6946564885496,69.64885496183206,139.55725190839695,walk
1604241004.8639085,-0.4298095703125,0.680908203125,-0.4783935546875,87.18320610687023,44.41984732824427,134.86259541984734,walk
1604241004.9039085,-0.0513916015625,0.77099609375,-0.1697998046875,64.68702290076335,121.56488549618321,67.90839694656489,walk
1604241004.9439085,-0.2066650390625,0.673828125,-0.2572021484375,68.58015267175573,125.50381679389314,15.358778625954198,walk
1604241004.9839084,-0.3602294921875,0.4677734375,-0.2882080078125,84.55725190839695,89.02290076335878,-42.847328244274806,walk
1604241005.0239084,-0.7767333984375,0.73876953125,-0.0374755859375,28.908396946564885,37.213740458015266,-81.41221374045801,walk
1604241005.0639083,-0.0457763671875,1.199951171875,0.229248046875,-54.045801526717554,95.8854961832061,-124.74809160305344,walk
1604241005.1039083,1.73681640625,0.93212890625,-1.0350341796875,25.38167938931298,47.267175572519086,-2.877862595419847,walk
1604241005.1439083,-0.0296630859375,1.0869140625,-0.3375244140625,39.038167938931295,-74.72519083969466,13.938931297709924,walk
1604241005.1839082,-0.6766357421875,1.289794921875,-0.2916259765625,-32.74809160305343,-53.961832061068705,23.885496183206108,walk
1604241005.2239082,0.307373046875,1.15771484375,-0.2454833984375,-5.175572519083969,-62.465648854961835,25.938931297709924,walk
1604241005.2639081,-0.3282470703125,0.888671875,-0.3699951171875,-4.9541984732824424,-11.061068702290076,-106.5114503816794,walk
1604241005.303908,-0.0321044921875,1.106201171875,-0.2615966796875,-17.221374045801525,58.404580152671755,-75.1526717557252,walk
1604241005.343908,-0.4241943359375,0.816650390625,-0.2943115234375,-2.427480916030534,-36.82442748091603,-97.52671755725191,walk
1604241005.383908,-0.0750732421875,0.930419921875,-0.3411865234375,4.32824427480916,-52.587786259541986,-81.94656488549619,walk
1604241005.423908,0.168212890625,0.83984375,-0.3668212890625,0.3816793893129771,-26.33587786259542,-82.6412213740458,walk
1604241005.463908,0.08544921875,0.887451171875,-0.4320068359375,6.106870229007634,-0.46564885496183206,-63.49618320610687,walk
1604241005.503908,-0.0438232421875,0.9296875,-0.2818603515625,-4.99236641221374,-0.8931297709923665,-44.32824427480916,walk
1604241005.5439079,0.08056640625,0.8876953125,-0.3572998046875,-5.625954198473282,0.6259541984732825,-35.10687022900763,walk
1604241005.5839078,0.10888671875,0.961669921875,-0.3851318359375,-13.0,-2.564885496183206,-33.3206106870229,walk
1604241005.6239078,0.139404296875,1.130126953125,-0.2835693359375,-19.587786259541986,1.7786259541984732,-1.618320610687023,walk
1604241005.6639078,0.389404296875,1.078369140625,-0.4388427734375,-63.57251908396947,7.809160305343512,44.25954198473283,walk
1604241005.7039077,0.81005859375,1.31884765625,-0.5589599609375,-81.29770992366412,22.18320610687023,110.98473282442748,walk
1604241005.7439077,0.265869140625,1.281982421875,-0.3145751953125,-49.213740458015266,48.93893129770992,173.96946564885496,walk
1604241005.7839077,-0.8072509765625,1.28369140625,-1.1605224609375,57.87022900763359,0.2366412213740458,106.6030534351145,walk
1604241005.8239076,-0.1634521484375,0.920166015625,-0.6055908203125,61.274809160305345,20.106870229007633,180.65648854961833,walk
1604241005.8639076,0.208984375,0.82666015625,-0.2989501953125,86.66412213740458,55.847328244274806,70.78625954198473,walk
1604241005.9039075,-0.0506591796875,0.841064453125,-0.2645263671875,89.40458015267176,155.12213740458014,17.374045801526716,walk
1604241005.9439075,-0.0645751953125,0.7451171875,-0.2530517578125,86.94656488549619,166.6946564885496,-37.25954198473283,walk
1604241005.9839075,-0.5780029296875,0.61328125,-0.3109130859375,77.80916030534351,115.14503816793894,-79.74809160305344,walk
1604241006.0239074,-0.4683837890625,0.831298828125,0.103271484375,-0.31297709923664124,84.57251908396947,-107.91603053435115,walk
1604241006.0639074,0.5546875,1.4140625,0.22509765625,-84.20610687022901,166.09923664122138,-119.54198473282443,walk
1604241006.1039073,1.428955078125,1.10693359375,-1.3209228515625,87.22900763358778,43.099236641221374,-9.83969465648855,walk
1604241006.1439073,-0.2225341796875,0.6318359375,-0.3580322265625,25.328244274809162,12.053435114503817,-33.51908396946565,walk
1604241006.1839073,-0.3133544921875,1.334716796875,0.033447265625,-40.38931297709924,167.41221374045801,-42.19083969465649,walk
1604241006.2239072,0.000244140625,1.000244140625,-0.2606201171875,2.3969465648854964,79.21374045801527,-30.450381679389313,walk
1604241006.2639072,-0.3292236328125,0.948486328125,-0.0299072265625,7.282442748091603,25.236641221374047,-96.35114503816794,walk
1604241006.3039072,-0.3175048828125,1.138671875,-0.1160888671875,-4.877862595419847,35.48091603053435,-74.87022900763358,walk
1604241006.343907,-0.2523193359375,0.873291015625,-0.4102783203125,13.511450381679388,-34.732824427480914,-98.6793893129771,walk
1604241006.383907,0.001220703125,0.97607421875,-0.3009033203125,11.15267175572519,-10.870229007633588,-84.37404580152672,walk
1604241006.423907,0.1533203125,0.802734375,-0.2860107421875,9.992366412213741,0.7862595419847328,-77.92366412213741,walk
1604241006.463907,-0.0269775390625,0.885986328125,-0.3609619140625,24.84732824427481,-15.580152671755725,-61.030534351145036,walk
1604241006.503907,-0.0731201171875,0.965576171875,-0.2869873046875,14.34351145038168,-6.625954198473282,-51.25190839694657,walk
1604241006.543907,-0.1329345703125,0.918701171875,-0.3472900390625,11.83969465648855,-3.030534351145038,-45.25954198473283,walk
1604241006.583907,0.0166015625,0.9990234375,-0.3082275390625,8.351145038167939,-22.3206106870229,-34.916030534351144,walk
1604241006.6239069,-0.0150146484375,1.01318359375,-0.4434814453125,-10.068702290076336,-2.7709923664122136,-13.82442748091603,walk
1604241006.6639068,-0.0120849609375,0.994384765625,-0.3504638671875,-23.83969465648855,-19.72519083969466,11.01526717557252,walk
1604241006.7039068,0.1142578125,1.288330078125,-0.4910888671875,-26.0,-48.06106870229008,60.00763358778626,walk
1604241006.7439067,0.690185546875,1.16064453125,-0.1156005859375,-37.732824427480914,-33.64885496183206,142.58778625954199,walk
1604241006.7839067,0.153564453125,1.130126953125,-0.4237060546875,17.587786259541986,-29.236641221374047,176.16030534351145,walk
1604241006.8239067,-0.6932373046875,1.4990234375,-0.5736083984375,21.83206106870229,-40.51908396946565,144.12977099236642,walk
1604241006.8639066,0.06787109375,0.965576171875,-0.2340087890625,58.06106870229008,-38.44274809160305,147.74809160305344,walk
1604241006.9039066,0.002197265625,0.843017578125,-0.1724853515625,64.95419847328245,-4.526717557251908,104.87022900763358,walk
1604241006.9439065,0.01513671875,0.8330078125,-0.1134033203125,68.72519083969466,41.343511450381676,65.16793893129771,walk
1604241006.9839065,0.03125,0.73779296875,-0.0875244140625,68.07633587786259,50.31297709923664,29.51145038167939,walk
1604241007.0239065,-0.2227783203125,0.641845703125,-0.0828857421875,57.603053435114504,29.19083969465649,-18.458015267175572,walk
1604241007.0639064,-0.4173583984375,0.671875,0.1748046875,-3.7480916030534353,20.900763358778626,-52.38167938931298,walk
1604241007.1039064,-0.2479248046875,0.7998046875,0.017333984375,-2.83206106870229,-63.786259541984734,-105.52671755725191,walk
1604241007.1439064,1.819091796875,1.880615234375,-0.7066650390625,12.053435114503817,-44.57251908396947,29.419847328244273,walk
1604241007.1839063,0.3330078125,0.867919921875,-0.6844482421875,69.37404580152672,-113.12977099236642,42.900763358778626,walk
1604241007.2239063,-0.6756591796875,1.5205078125,0.1318359375,-26.3206106870229,-128.3969465648855,12.687022900763358,walk
1604241007.2639062,1.109619140625,0.592529296875,-1.4014892578125,100.93129770992367,-2.4198473282442747,26.282442748091604,walk
1604241007.3039062,-1.1361083984375,0.6396484375,-0.0477294921875,-20.916030534351144,-50.7557251908397,-89.44274809160305,walk
1604241007.3439062,-0.0872802734375,1.29345703125,-0.4161376953125,-9.068702290076336,-13.511450381679388,-58.030534351145036,walk
1604241007.3839061,-0.4012451171875,0.74267578125,-0.4505615234375,-3.7938931297709924,-84.30534351145039,-65.25954198473282,walk
1604241007.423906,-0.0750732421875,0.863037109375,-0.5150146484375,5.931297709923665,-94.56488549618321,-73.04580152671755,walk
1604241007.463906,0.128173828125,0.845458984375,-0.4525146484375,-2.9083969465648853,-60.458015267175576,-73.58015267175573,walk
1604241007.503906,0.085693359375,0.804931640625,-0.4066162109375,-5.114503816793893,-19.65648854961832,-63.06870229007634,walk
1604241007.543906,-0.1156005859375,0.87646484375,-0.3211669921875,-2.8931297709923665,-32.595419847328245,-45.9236641221374,walk
1604241007.583906,-0.0479736328125,0.8544921875,-0.4188232421875,5.213740458015267,-48.70229007633588,-30.068702290076335,walk
1604241007.623906,-0.1190185546875,0.907958984375,-0.2923583984375,6.480916030534351,-76.0381679389313,-19.931297709923665,walk
1604241007.6639059,0.225830078125,0.864501953125,-0.4412841796875,8.465648854961833,-45.55725190839695,-11.748091603053435,walk
1604241007.7039058,0.085693359375,0.934326171875,-0.4947509765625,-8.717557251908397,3.099236641221374,-5.450381679389313,walk
1604241007.7439058,-0.0968017578125,1.04931640625,-0.4473876953125,-9.916030534351146,-19.83206106870229,11.251908396946565,walk
1604241007.7839057,0.389404296875,1.358642578125,-0.4395751953125,-23.290076335877863,-47.85496183206107,73.8473282442748,walk
1604241007.8239057,0.744140625,1.234375,-0.2698974609375,-62.97709923664122,-36.01526717557252,168.5648854961832,walk
1604241007.8639057,-0.1859130859375,1.41796875,0.211181640625,-13.83206106870229,-77.82442748091603,203.99236641221373,walk
1604241007.9039056,-1.1151123046875,1.193603515625,-0.8736572265625,40.85496183206107,-141.06870229007635,175.2290076335878,walk
1604241007.9439056,0.1083984375,0.9228515625,-0.4219970703125,54.12213740458015,-105.13740458015268,184.12213740458014,walk
1604241007.9839056,0.06787109375,0.7685546875,-0.2611083984375,51.30534351145038,11.106870229007633,110.18320610687023,walk
1604241008.0239055,-0.0616455078125,0.620849609375,-0.0836181640625,50.908396946564885,32.3587786259542,60.11450381679389,walk
1604241008.0639055,-0.0950927734375,0.52197265625,-0.1094970703125,58.38167938931298,72.95419847328245,-8.320610687022901,walk
1604241008.1039054,-0.5499267578125,0.51220703125,-0.2303466796875,55.0,13.114503816793894,-51.70992366412214,walk
1604241008.1439054,-0.5784912109375,0.84130859375,-0.0010986328125,-33.282442748091604,-35.06106870229008,-98.1145038167939,walk
1604241008.1839054,0.484375,1.1083984375,-0.1363525390625,-59.587786259541986,-73.65648854961832,-89.10687022900764,walk
1604241008.2239053,1.99993896484375,1.11572265625,-1.0579833984375,96.03053435114504,-5.877862595419847,64.72519083969466,walk
1604241008.2639053,-0.8450927734375,1.752197265625,-0.0108642578125,19.572519083969464,-119.0,-26.244274809160306,walk
1604241008.3039052,0.715576171875,1.4736328125,-0.4119873046875,-139.27480916030535,52.458015267175576,37.954198473282446,walk
1604241008.3439052,-0.3592529296875,1.058349609375,1.0341796875,-54.81679389312977,106.35114503816794,-16.595419847328245,walk
1604241008.3839052,-0.0833740234375,0.60107421875,-0.6051025390625,-20.328244274809162,-86.93893129770993,-84.8854961832061,walk
1604241008.4239051,-0.0364990234375,1.0458984375,-0.3616943359375,-16.748091603053435,4.404580152671755,-68.0,walk
1604241008.463905,-0.1285400390625,0.7177734375,-0.5174560546875,-11.320610687022901,-44.99236641221374,-70.25190839694656,walk
1604241008.503905,-0.0955810546875,0.83154296875,-0.4700927734375,-6.694656488549619,-43.3587786259542,-71.97709923664122,walk
1604241008.543905,0.055419921875,0.83349609375,-0.4197998046875,-2.801526717557252,-22.6793893129771,-63.49618320610687,walk
1604241008.583905,0.026123046875,0.889892578125,-0.3358154296875,-3.801526717557252,-14.82442748091603,-44.099236641221374,walk
1604241008.623905,-0.0479736328125,0.893310546875,-0.3228759765625,-1.3969465648854962,-14.83969465648855,-38.70229007633588,walk
1604241008.663905,-0.1319580078125,0.878662109375,-0.2906494140625,-6.870229007633588,-26.52671755725191,-33.61068702290076,walk
1604241008.7039049,-0.0394287109375,0.892333984375,-0.3875732421875,-4.480916030534351,-57.99236641221374,-23.396946564885496,walk
1604241008.7439048,0.177978515625,0.9736328125,-0.3782958984375,-9.618320610687023,-26.633587786259543,-19.267175572519083,walk
1604241008.7839048,0.049560546875,1.028564453125,-0.5438232421875,-20.31297709923664,-3.633587786259542,7.931297709923665,walk
1604241008.8239048,0.355224609375,1.2802734375,-0.5206298828125,-44.05343511450382,-16.213740458015266,60.32824427480916,walk
1604241008.8639047,0.60009765625,1.3740234375,-0.1107177734375,-60.12213740458015,-7.893129770992366,139.8320610687023,walk
1604241008.9039047,-0.0406494140625,1.27685546875,-0.0919189453125,-37.587786259541986,-50.37404580152672,177.0381679389313,walk
1604241008.9439046,-1.1217041015625,1.4130859375,-0.5184326171875,33.85496183206107,-147.7175572519084,135.49618320610688,walk
1604241008.9839046,0.08642578125,0.959228515625,-0.3609619140625,51.63358778625954,-87.8854961832061,148.7709923664122,walk
1604241009.0239046,0.047119140625,0.884033203125,-0.1744384765625,50.916030534351144,-16.47328244274809,92.52671755725191,walk
1604241009.0639045,-0.0086669921875,0.71923828125,-0.1112060546875,46.74045801526717,60.74809160305343,55.42748091603053,walk
1604241009.1039045,-0.0638427734375,0.60009765625,-0.1275634765625,53.06106870229008,76.68702290076335,9.664122137404581,walk
1604241009.1439044,-0.5106201171875,0.541015625,-0.1942138671875,63.81679389312977,17.763358778625953,-34.0763358778626,walk
1604241009.1839044,-0.9559326171875,0.71435546875,-0.0340576171875,26.16793893129771,-86.18320610687023,-41.18320610687023,walk
1604241009.2239044,-0.4473876953125,0.833984375,-0.0465087890625,-1.633587786259542,-140.5267175572519,-62.083969465648856,walk
1604241009.2639043,1.405029296875,1.4013671875,-1.3966064453125,65.90839694656489,-231.70992366412213,-7.5038167938931295,walk
1604241009.3039043,1.39111328125,1.007080078125,-0.9766845703125,80.18320610687023,-44.36641221374046,36.916030534351144,walk
1604241009.3439043,-0.7244873046875,1.41357421875,-0.2049560546875,-1.2290076335877862,-21.763358778625953,-19.244274809160306,walk
1604241009.3839042,0.13330078125,1.373779296875,-0.0267333984375,-101.44274809160305,23.908396946564885,22.068702290076335,walk
1604241009.4239042,-0.4805908203125,1.21923828125,-0.2581787109375,46.267175572519086,-56.41984732824427,11.931297709923664,walk
1604241009.4639041,-0.4635009765625,0.578857421875,-0.3197021484375,-17.778625954198475,-196.61832061068702,-10.633587786259541,walk
1604241009.503904,0.010498046875,0.8310546875,-0.7667236328125,-7.8320610687022905,-30.96946564885496,-14.648854961832061,walk
1604241009.543904,-0.1512451171875,0.892578125,-0.5467529296875,-7.5038167938931295,-58.00763358778626,-21.709923664122137,walk
1604241009.583904,-0.2420654296875,0.908935546875,-0.3861083984375,-10.022900763358779,-94.59541984732824,-29.33587786259542,walk
1604241009.623904,-0.0731201171875,0.803955078125,-0.4693603515625,-7.7251908396946565,-102.63358778625954,-23.870229007633586,walk
1604241009.663904,0.047119140625,0.857177734375,-0.5196533203125,-2.7022900763358777,-92.47328244274809,-5.99236641221374,walk
1604241009.703904,0.227294921875,0.877685546875,-0.4422607421875,-6.175572519083969,-79.31297709923665,9.213740458015268,walk
1604241009.7439039,-0.0035400390625,0.971435546875,-0.3699951171875,-0.5038167938931297,-55.50381679389313,27.114503816793892,walk
1604241009.7839038,-0.0552978515625,0.953857421875,-0.1341552734375,-5.595419847328245,-36.770992366412216,46.916030534351144,walk
1604241009.8239038,0.115478515625,0.8955078125,-0.1951904296875,-4.091603053435114,-59.152671755725194,78.70992366412214,walk
1604241009.8639038,-0.1065673828125,0.69189453125,-0.3753662109375,-14.641221374045802,-109.77862595419847,84.6793893129771,walk
1604241009.9039037,0.2861328125,1.192626953125,-0.6119384765625,-5.450381679389313,-131.75572519083968,97.43511450381679,walk
1604241009.9439037,0.40087890625,1.357421875,0.036376953125,-13.801526717557252,-102.44274809160305,173.61068702290078,walk
1604241009.9839036,-1.0552978515625,1.5234375,0.176025390625,8.335877862595419,-195.87786259541986,155.25190839694656,walk
1604241010.0239036,-0.2877197265625,1.08984375,-0.2945556640625,-15.778625954198473,-191.82442748091603,140.31297709923663,walk
1604241010.0639036,0.1142578125,0.8671875,-0.3895263671875,-1.7557251908396947,-181.6793893129771,122.87786259541984,walk
1604241010.1039035,-0.0902099609375,0.906494140625,-0.3126220703125,-24.702290076335878,-117.77099236641222,80.7175572519084,walk
1604241010.1439035,-0.1654052734375,0.83935546875,-0.1297607421875,-35.18320610687023,-57.61832061068702,57.961832061068705,walk
1604241010.1839035,-0.2291259765625,0.626708984375,-0.1563720703125,-28.412213740458014,-124.53435114503817,44.41984732824427,walk
1604241010.2239034,-0.3970947265625,0.7099609375,-0.3631591796875,-16.80916030534351,-225.04580152671755,31.740458015267176,walk
1604241010.2639034,-0.0228271484375,0.6787109375,-0.7069091796875,11.320610687022901,-240.86259541984734,42.56488549618321,walk
1604241010.3039033,0.525634765625,0.744384765625,-0.8934326171875,29.46564885496183,-207.01526717557252,45.74045801526717,walk
1604241010.3439033,0.60302734375,0.831787109375,-0.5181884765625,10.030534351145038,-96.67175572519083,21.14503816793893,walk
1604241010.3839033,0.0439453125,0.827880859375,-0.4700927734375,1.7404580152671756,-65.8473282442748,-5.763358778625954,walk
1604241010.4239032,-0.1878662109375,0.75146484375,-0.3043212890625,-13.877862595419847,-85.62595419847328,-24.328244274809162,walk
1604241010.4639032,0.165283203125,1.5546875,-0.7542724609375,0.9236641221374046,-122.83969465648855,-51.42748091603053,walk
1604241010.5039032,1.365478515625,1.129638671875,-0.4168701171875,46.63358778625954,24.610687022900763,50.25190839694657,walk
1604241010.543903,-1.4676513671875,0.65625,-0.1795654296875,12.076335877862595,-175.80152671755727,-40.541984732824424,walk
1604241010.583903,0.550048828125,1.00439453125,-0.5645751953125,4.732824427480916,-80.89312977099236,8.702290076335878,walk
1604241010.623903,-0.1995849609375,0.86083984375,-0.5123291015625,-1.1603053435114503,-51.045801526717554,6.083969465648855,walk
1604241010.663903,-0.3487548828125,0.90869140625,-0.4510498046875,9.442748091603054,-129.3587786259542,13.099236641221374,walk
1604241010.703903,-0.0948486328125,0.91748046875,-0.5081787109375,6.0,-137.5114503816794,10.50381679389313,walk
1604241010.743903,0.02099609375,0.8896484375,-0.4544677734375,2.045801526717557,-123.21374045801527,8.625954198473282,walk
1604241010.783903,0.051025390625,0.861572265625,-0.5780029296875,0.31297709923664124,-105.94656488549619,3.1526717557251906,walk
1604241010.8239028,0.090576171875,0.82421875,-0.5306396484375,0.648854961832061,-88.70229007633588,-3.8396946564885495,walk
1604241010.8639028,0.040283203125,0.861328125,-0.4503173828125,5.068702290076335,-81.51908396946565,-8.709923664122137,walk
1604241010.9039028,0.11181640625,0.9404296875,-0.4300537109375,5.099236641221374,-68.19847328244275,-14.755725190839694,walk
1604241010.9439027,0.121826171875,0.89990234375,-0.4583740234375,7.67175572519084,-42.045801526717554,-13.633587786259541,walk
1604241010.9839027,0.046630859375,0.854736328125,-0.4530029296875,16.770992366412212,-33.87786259541985,8.877862595419847,walk
1604241011.0239027,-0.0003662109375,1.0419921875,-0.4420166015625,9.50381679389313,-45.80916030534351,38.52671755725191,walk
1604241011.0639026,0.2119140625,1.337890625,-0.5277099609375,-11.229007633587786,-49.14503816793893,78.7175572519084,walk
1604241011.1039026,1.00048828125,1.299072265625,-0.2938232421875,-63.01526717557252,-53.93893129770992,159.81679389312978,walk
1604241011.1439025,0.51220703125,1.360595703125,0.16064453125,-36.98473282442748,5.9541984732824424,191.58778625954199,walk
1604241011.1839025,-1.2344970703125,1.434326171875,-0.4285888671875,22.870229007633586,-60.969465648854964,138.68702290076337,walk
1604241011.2239025,0.06103515625,1.0029296875,-0.6541748046875,6.541984732824427,-18.00763358778626,141.57251908396947,walk
1604241011.2639024,0.240234375,0.89111328125,-0.5103759765625,32.66412213740458,-14.801526717557252,123.25190839694656,walk
1604241011.3039024,-0.0279541015625,0.71435546875,-0.1138916015625,36.06870229007634,40.19847328244275,79.77862595419847,walk
1604241011.3439023,0.010009765625,0.5517578125,-0.1717529296875,36.98473282442748,72.20610687022901,8.877862595419847,walk
1604241011.3839023,-0.0562744140625,0.523193359375,-0.2283935546875,47.221374045801525,69.7557251908397,-44.79389312977099,walk
1604241011.4239023,-0.3802490234375,0.737060546875,-0.1536865234375,13.0,6.183206106870229,-65.10687022900764,walk
1604241011.4639022,-0.0867919921875,0.8974609375,0.07666015625,-52.20610687022901,14.053435114503817,-99.09160305343511,walk
1604241011.5039022,1.87646484375,1.524658203125,-0.8856201171875,-12.816793893129772,46.51145038167939,-15.83969465648855,walk
1604241011.5439022,0.63427734375,1.001953125,-0.3729248046875,59.29770992366412,-45.16793893129771,26.64885496183206,walk
1604241011.5839021,-0.5811767578125,1.02001953125,-0.3057861328125,17.770992366412212,-99.54198473282443,-11.648854961832061,walk
1604241011.623902,0.525390625,1.059814453125,-0.1158447265625,-52.030534351145036,144.48091603053436,-60.49618320610687,walk
1604241011.663902,-0.2005615234375,1.1923828125,-0.4478759765625,-19.763358778625953,-15.221374045801527,-14.335877862595419,walk
1604241011.703902,-0.5550537109375,0.72265625,-0.4559326171875,-11.129770992366412,-84.35114503816794,-77.85496183206106,walk
1604241011.743902,0.20751953125,0.935302734375,-0.5316162109375,-11.099236641221374,-4.106870229007634,-63.52671755725191,walk
1604241011.783902,-0.0770263671875,0.81591796875,-0.4185791015625,-11.389312977099237,-13.732824427480915,-75.26717557251908,walk
1604241011.823902,-0.0184326171875,0.8828125,-0.4110107421875,-7.648854961832061,-20.366412213740457,-74.45801526717557,walk
1604241011.8639019,0.083984375,0.859130859375,-0.4163818359375,-1.8702290076335877,-0.5419847328244275,-71.0,walk
1604241011.9039018,0.125244140625,0.92236328125,-0.3016357421875,-8.435114503816793,17.572519083969464,-54.916030534351144,walk
1604241011.9439018,0.02001953125,0.907470703125,-0.2469482421875,-15.793893129770993,41.37404580152672,-49.50381679389313,walk
1604241011.9839017,-0.1627197265625,0.936767578125,-0.2786865234375,-3.732824427480916,42.31297709923664,-48.847328244274806,walk
1604241012.0239017,-0.1275634765625,0.84619140625,-0.3992919921875,-1.7709923664122138,-1.3893129770992367,-46.908396946564885,walk
1604241012.0639017,-0.0096435546875,1.04052734375,-0.3558349609375,-11.80916030534351,-13.488549618320612,-26.6793893129771,walk
1604241012.1039016,0.131103515625,1.065185546875,-0.5374755859375,-16.206106870229007,7.3816793893129775,-11.801526717557252,walk
1604241012.1439016,0.247314453125,1.070068359375,-0.6617431640625,-25.793893129770993,15.610687022900763,0.1450381679389313,walk
1604241012.1839015,0.45166015625,1.191650390625,-0.5316162109375,-71.67175572519083,31.9618320610687,71.19847328244275,walk
1604241012.2239015,0.644775390625,1.2255859375,-0.2186279296875,-74.23664122137404,64.6793893129771,148.49618320610688,walk
1604241012.2639015,-0.0697021484375,0.976318359375,-0.3485107421875,-30.625954198473284,74.26717557251908,160.93893129770993,walk
1604241012.3039014,-0.9261474609375,1.60546875,-0.6942138671875,38.6412213740458,-15.076335877862595,115.45038167938931,walk
1604241012.3439014,-0.0865478515625,0.7119140625,-0.6212158203125,77.50381679389314,15.183206106870228,106.26717557251908,walk
1604241012.3839014,0.021484375,0.986572265625,-0.4686279296875,81.34351145038168,82.01526717557252,66.6412213740458,walk
1604241012.4239013,-0.0389404296875,0.833984375,-0.3226318359375,85.64885496183206,145.42748091603053,25.82442748091603,walk
1604241012.4639013,-0.1470947265625,0.586181640625,-0.2432861328125,83.7175572519084,175.793893129771,-39.961832061068705,walk
1604241012.5039012,-0.3135986328125,0.615966796875,-0.2279052734375,70.77862595419847,141.29770992366412,-82.69465648854961,walk
1604241012.5439012,-0.5494384765625,0.850830078125,-0.1177978515625,16.633587786259543,52.35114503816794,-87.6793893129771,walk
1604241012.5839012,0.015380859375,1.03076171875,0.247802734375,-13.877862595419847,75.32824427480917,-102.29770992366412,walk
1604241012.6239011,1.520751953125,1.391845703125,-0.8109130859375,42.61832061068702,-56.51908396946565,22.404580152671755,walk
1604241012.663901,0.078369140625,0.776611328125,-0.6248779296875,77.61832061068702,-9.763358778625955,33.38931297709924,walk
1604241012.703901,-0.3809814453125,1.109375,-0.2874755859375,10.022900763358779,-19.801526717557252,-28.27480916030534,walk
1604241012.743901,0.82421875,1.346923828125,-0.3433837890625,-69.90076335877863,170.76335877862596,-45.2442748091603,walk
1604241012.783901,-0.7828369140625,0.9052734375,0.036376953125,-32.20610687022901,62.961832061068705,-24.35114503816794,walk
1604241012.823901,-0.3780517578125,0.664794921875,-0.3109130859375,8.534351145038167,-110.63358778625954,-95.43511450381679,walk
1604241012.863901,0.283447265625,1.073486328125,-0.4361572265625,-16.083969465648856,-12.335877862595419,-70.43511450381679,walk
1604241012.9039009,0.060546875,0.77978515625,-0.5089111328125,-7.3816793893129775,25.229007633587788,-86.2442748091603,walk
1604241012.9439008,-0.2657470703125,0.9033203125,-0.3306884765625,-2.4732824427480917,7.534351145038168,-92.49618320610686,walk
1604241012.9839008,-0.0894775390625,0.861083984375,-0.3197021484375,9.511450381679388,6.526717557251908,-81.6412213740458,walk
1604241013.0239007,-0.0704345703125,0.9560546875,-0.3106689453125,6.305343511450381,-2.9389312977099236,-52.29770992366412,walk
1604241013.0639007,-0.0274658203125,0.908203125,-0.2921142578125,-3.946564885496183,2.9236641221374047,-47.42748091603053,walk
1604241013.1039007,-0.1024169921875,0.88623046875,-0.3895263671875,-4.076335877862595,30.213740458015266,-53.274809160305345,walk
1604241013.1439006,-0.1719970703125,0.868408203125,-0.3887939453125,-0.17557251908396945,-10.312977099236642,-51.770992366412216,walk
1604241013.1839006,-0.0369873046875,1.070068359375,-0.4012451171875,-12.038167938931299,-21.106870229007633,-30.61832061068702,walk
1604241013.2239006,0.193115234375,0.979248046875,-0.4942626953125,-18.412213740458014,-8.114503816793894,-6.7251908396946565,walk
1604241013.2639005,0.293212890625,1.033447265625,-0.6512451171875,-26.748091603053435,9.725190839694656,12.534351145038167,walk
1604241013.3039005,0.6005859375,1.261474609375,-0.3768310546875,-69.4885496183206,18.83206106870229,94.50381679389314,walk
1604241013.3439004,0.673828125,1.0849609375,-0.1890869140625,-58.18320610687023,44.81679389312977,163.8854961832061,walk
1604241013.3839004,-0.5504150390625,1.229248046875,-0.4014892578125,-4.129770992366412,60.51908396946565,128.29007633587787,walk
1604241013.4239004,-0.5731201171875,1.344970703125,-0.4813232421875,30.931297709923665,-7.595419847328245,156.54198473282443,walk
1604241013.4639003,-0.0194091796875,0.876953125,-0.5623779296875,72.83969465648855,20.213740458015266,120.43511450381679,walk
1604241013.5039003,-0.0738525390625,0.975830078125,-0.2918701171875,61.85496183206107,64.89312977099236,74.63358778625954,walk
1604241013.5439003,-0.1956787109375,0.798583984375,-0.2210693359375,65.31297709923665,123.07633587786259,31.244274809160306,walk
1604241013.5839002,-0.2315673828125,0.5712890625,-0.0777587890625,60.267175572519086,118.18320610687023,-33.93893129770992,walk
1604241013.6239002,-0.4447021484375,0.645263671875,-0.1348876953125,45.86259541984733,56.908396946564885,-86.25954198473282,walk
1604241013.6639001,-0.3092041015625,0.856201171875,0.037841796875,-27.18320610687023,41.38931297709924,-120.74045801526718,walk
1604241013.7039,0.910888671875,1.484130859375,0.3359375,-111.22900763358778,96.16030534351145,-51.11450381679389,walk
1604241013.7439,1.0419921875,0.977294921875,-0.5074462890625,68.2824427480916,28.480916030534353,59.11450381679389,walk
1604241013.7839,-1.1678466796875,1.291259765625,-0.3299560546875,-19.015267175572518,-80.06870229007633,-26.251908396946565,walk
1604241013.8239,1.064697265625,1.55078125,-0.5938720703125,-75.3969465648855,66.2824427480916,-7.4961832061068705,walk
1604241013.8639,-0.8973388671875,0.7392578125,0.0693359375,-28.916030534351144,124.26717557251908,-60.16793893129771,walk
1604241013.9039,-0.0804443359375,1.073974609375,-0.2652587890625,-1.5572519083969465,-12.122137404580153,-90.41221374045801,walk
1604241013.9438999,-0.1851806640625,0.87646484375,-0.2425537109375,-5.977099236641221,9.13740458015267,-81.3587786259542,walk
1604241013.9838998,-0.1585693359375,0.786865234375,-0.4512939453125,16.793893129770993,-36.541984732824424,-74.31297709923665,walk
1604241014.0238998,-0.0369873046875,0.918212890625,-0.3616943359375,15.282442748091603,-31.923664122137403,-72.83206106870229,walk
1604241014.0638998,0.05712890625,0.848388671875,-0.3995361328125,15.67175572519084,-11.687022900763358,-68.70229007633588,walk
1604241014.1038997,0.03857421875,0.89990234375,-0.3282470703125,5.412213740458015,0.5419847328244275,-48.83206106870229,walk
1604241014.1438997,-0.0643310546875,0.861083984375,-0.3304443359375,1.9312977099236641,10.335877862595419,-43.10687022900763,walk
1604241014.1838996,-0.2344970703125,0.93603515625,-0.2874755859375,7.770992366412214,1.9618320610687023,-39.969465648854964,walk
1604241014.2238996,-0.1048583984375,0.956787109375,-0.2684326171875,3.427480916030534,-47.465648854961835,-22.778625954198475,walk
1604241014.2638996,0.1845703125,0.9326171875,-0.4600830078125,-11.404580152671755,-24.603053435114504,-9.732824427480915,walk
1604241014.3038995,0.125244140625,1.0673828125,-0.4237060546875,-26.52671755725191,-6.8396946564885495,18.755725190839694,walk
1604241014.3438995,0.373779296875,1.358642578125,-0.3489990234375,-41.88549618320611,-39.29007633587786,69.70992366412214,walk
1604241014.3838995,0.426025390625,1.21044921875,-0.1156005859375,-36.35114503816794,-38.56488549618321,121.59541984732824,walk
1604241014.4238994,0.070068359375,1.215087890625,-0.2630615234375,-4.9541984732824424,-32.12977099236641,168.32824427480915,walk
1604241014.4638994,-0.7513427734375,1.4599609375,-0.3831787109375,43.038167938931295,-80.48091603053435,129.45801526717557,walk
1604241014.5038993,-0.1666259765625,0.9013671875,-0.2550048828125,68.58778625954199,-54.12213740458015,143.59541984732823,walk
1604241014.5438993,0.04541015625,0.90283203125,-0.0526123046875,70.45801526717557,-39.091603053435115,99.34351145038168,walk
1604241014.5838993,0.007568359375,0.8359375,0.018310546875,53.61832061068702,15.885496183206106,61.343511450381676,walk
1604241014.6238992,-0.0782470703125,0.757080078125,-0.0389404296875,39.030534351145036,36.969465648854964,25.267175572519083,walk
1604241014.6638992,-0.3685302734375,0.544677734375,-0.0938720703125,25.82442748091603,-9.022900763358779,-9.022900763358779,walk
1604241014.7038991,-0.3841552734375,0.736572265625,-0.0042724609375,-16.404580152671755,-38.16030534351145,-37.3587786259542,walk
1604241014.743899,-0.2366943359375,1.00732421875,-0.2257080078125,-29.625954198473284,-120.8473282442748,-67.53435114503817,walk
1604241014.783899,0.867431640625,1.325927734375,-1.5076904296875,71.0381679389313,-201.91603053435114,-50.541984732824424,walk
1604241014.823899,1.593017578125,0.98583984375,-0.6341552734375,43.74809160305343,-46.29770992366412,20.083969465648856,walk
1604241014.863899,-0.8702392578125,1.16552734375,-0.0186767578125,-20.885496183206108,-99.93893129770993,-44.23664122137404,walk
1604241014.903899,0.16357421875,1.246337890625,0.583740234375,-97.47328244274809,-22.99236641221374,-8.709923664122137,walk
1604241014.943899,-0.3067626953125,0.897216796875,-0.6427001953125,10.82442748091603,-36.63358778625954,-50.63358778625954,walk
1604241014.9838989,-0.1219482421875,0.937255859375,0.09716796875,-47.42748091603053,-63.396946564885496,-31.48854961832061,walk
1604241015.0238988,-0.2147216796875,0.764892578125,-0.8138427734375,8.900763358778626,-20.251908396946565,-50.43511450381679,walk
1604241015.0638988,0.057861328125,0.804931640625,-0.4227294921875,0.5343511450381679,-34.16793893129771,-35.01526717557252,walk
1604241015.1038988,0.079345703125,0.89306640625,-0.3472900390625,4.1603053435114505,-56.969465648854964,-13.13740458015267,walk
1604241015.1438987,-0.0421142578125,0.86865234375,-0.3907470703125,9.541984732824428,-58.404580152671755,-8.305343511450381,walk
1604241015.1838987,-0.1375732421875,0.871337890625,-0.3905029296875,11.145038167938932,-43.32824427480916,-10.740458015267176,walk
1604241015.2238986,-0.0921630859375,0.884765625,-0.3529052734375,2.7099236641221376,-28.16793893129771,-22.236641221374047,walk
1604241015.2638986,-0.1192626953125,0.90380859375,-0.3052978515625,4.755725190839694,-37.045801526717554,-23.045801526717558,walk
1604241015.3038986,0.061279296875,0.895263671875,-0.4022216796875,2.0839694656488548,-47.587786259541986,-15.549618320610687,walk
1604241015.3438985,0.03857421875,0.951416015625,-0.4891357421875,-4.748091603053435,-28.82442748091603,-14.67175572519084,walk
1604241015.3838985,-0.0411376953125,0.97021484375,-0.4371337890625,-9.229007633587786,-10.931297709923664,1.9236641221374047,walk
1604241015.4238985,0.08056640625,1.161865234375,-0.4493408203125,-16.022900763358777,-39.908396946564885,43.58015267175573,walk
1604241015.4638984,0.764892578125,1.4169921875,-0.3941650390625,-61.656488549618324,-27.572519083969464,121.02290076335878,walk
1604241015.5038984,0.443603515625,1.239501953125,0.16162109375,-55.86259541984733,-10.82442748091603,194.29007633587787,walk
1604241015.5438983,-0.9071044921875,1.533203125,-0.1138916015625,1.4045801526717556,-99.70229007633588,155.72519083969465,walk
1604241015.5838983,-0.1575927734375,1.064453125,-0.5093994140625,23.18320610687023,-124.41221374045801,169.00763358778627,walk
1604241015.6238983,0.268798828125,0.904052734375,-0.4918212890625,52.70992366412214,-69.10687022900764,127.61832061068702,walk
1604241015.6638982,0.171142578125,0.768798828125,-0.2208251953125,35.86259541984733,12.885496183206106,81.6793893129771,walk
1604241015.7038982,0.0751953125,0.61328125,-0.1890869140625,45.67175572519084,71.31297709923665,24.198473282442748,walk
1604241015.7438982,-0.0650634765625,0.432373046875,-0.1761474609375,47.17557251908397,104.06870229007633,-36.30534351145038,walk
1604241015.783898,-0.4281005859375,0.544921875,-0.1649169921875,23.80916030534351,62.091603053435115,-65.61068702290076,walk
1604241015.823898,-0.4251708984375,0.859619140625,0.02294921875,-26.84732824427481,7.358778625954199,-103.74809160305344,walk
1604241015.863898,0.590576171875,1.332275390625,-0.1551513671875,-62.70992366412214,36.55725190839695,-91.25954198473282,walk
1604241015.903898,1.267578125,1.100341796875,-0.5440673828125,56.38931297709924,-7.343511450381679,29.106870229007633,walk
1604241015.943898,-0.7437744140625,1.360595703125,-0.1861572265625,49.541984732824424,-115.81679389312977,-0.8473282442748091,walk
1604241015.983898,0.756103515625,1.38427734375,-0.5631103515625,-112.41221374045801,47.30534351145038,16.46564885496183,walk
1604241016.023898,-0.3460693359375,1.12109375,0.38720703125,-38.3587786259542,32.732824427480914,-9.435114503816793,walk
1604241016.0638978,-0.2889404296875,0.526123046875,-0.3841552734375,-14.053435114503817,-75.00763358778626,-91.90839694656489,walk
1604241016.1038978,-0.1795654296875,1.006103515625,-0.3001708984375,-20.18320610687023,11.870229007633588,-61.64885496183206,walk
1604241016.1438978,-0.0574951171875,0.825927734375,-0.4368896484375,-9.816793893129772,-12.068702290076336,-78.76335877862596,walk
1604241016.1838977,-0.2838134765625,0.854248046875,-0.3970947265625,-5.916030534351145,-28.0,-84.45038167938931,walk
1604241016.2238977,0.004638671875,0.86572265625,-0.3619384765625,-4.66412213740458,-18.68702290076336,-77.7557251908397,walk
1604241016.2638977,-0.0211181640625,0.873291015625,-0.3582763671875,3.3969465648854964,8.183206106870228,-70.55725190839695,walk
1604241016.3038976,-0.0269775390625,0.89013671875,-0.2799072265625,-4.427480916030534,3.312977099236641,-53.961832061068705,walk
1604241016.3438976,-0.1634521484375,0.9267578125,-0.2886962890625,1.4198473282442747,0.03816793893129771,-42.038167938931295,walk
1604241016.3838975,-0.1239013671875,0.87060546875,-0.2689208984375,5.00763358778626,-36.229007633587784,-34.030534351145036,walk
1604241016.4238975,0.082763671875,0.967041015625,-0.4368896484375,-3.6564885496183206,-36.038167938931295,-16.885496183206108,walk
1604241016.4638975,0.095458984375,0.973388671875,-0.5106201171875,-18.34351145038168,-7.267175572519084,3.122137404580153,walk
1604241016.5038974,0.210693359375,1.273193359375,-0.5352783203125,-20.557251908396946,-10.83206106870229,41.00763358778626,walk
1604241016.5438974,0.737548828125,1.299560546875,-0.4017333984375,-55.778625954198475,-19.52671755725191,126.34351145038168,walk
1604241016.5838974,0.342041015625,1.243896484375,-0.1104736328125,-20.80916030534351,-19.35114503816794,179.12213740458014,walk
1604241016.6238973,-0.8018798828125,1.4091796875,-0.2572021484375,29.923664122137403,-67.81679389312977,132.5114503816794,walk
1604241016.6638973,-0.0418701171875,1.02880859375,-0.3814697265625,46.83206106870229,-75.29770992366412,151.6259541984733,walk
1604241016.7038972,0.117431640625,0.887939453125,-0.3399658203125,71.41984732824427,-18.64885496183206,115.63358778625954,walk
1604241016.7438972,-0.0653076171875,0.80029296875,-0.1099853515625,60.11450381679389,39.97709923664122,82.70229007633588,walk
1604241016.7838972,-0.1138916015625,0.670654296875,-0.0919189453125,58.465648854961835,75.35114503816794,29.022900763358777,walk
1604241016.8238971,-0.2064208984375,0.49853515625,-0.1165771484375,54.396946564885496,67.32824427480917,-28.236641221374047,walk
1604241016.863897,-0.6243896484375,0.643310546875,-0.0499267578125,27.396946564885496,11.412213740458014,-56.87022900763359,walk
1604241016.903897,-0.5460205078125,0.91943359375,0.005859375,-21.87786259541985,-66.58015267175573,-96.48091603053435,walk
1604241016.943897,0.5498046875,1.11279296875,-0.5809326171875,38.465648854961835,-180.16030534351145,-56.86259541984733,walk
1604241016.983897,1.99993896484375,1.087158203125,-0.3939208984375,35.17557251908397,49.229007633587784,12.01526717557252,walk
1604241017.023897,-0.6219482421875,1.608154296875,-0.3453369140625,20.47328244274809,-70.40458015267176,-8.13740458015267,walk
1604241017.063897,0.112060546875,1.20947265625,-0.2896728515625,-111.73282442748092,-22.87786259541985,18.328244274809162,walk
1604241017.1038969,-0.0650634765625,1.4013671875,-0.2388916015625,20.480916030534353,-35.68702290076336,3.7099236641221376,walk
1604241017.1438968,-0.1783447265625,0.7763671875,-0.3372802734375,-15.931297709923664,-64.6030534351145,-54.13740458015267,walk
1604241017.1838968,-0.1324462890625,0.86474609375,-0.3782958984375,-10.038167938931299,-5.33587786259542,-46.221374045801525,walk
1604241017.2238967,-0.2406005859375,0.773193359375,-0.5360107421875,2.9160305343511452,-69.74045801526718,-46.25190839694657,walk
1604241017.2638967,-0.0677490234375,0.934814453125,-0.3983154296875,-0.4351145038167939,-67.43511450381679,-45.7557251908397,walk
1604241017.3038967,0.07861328125,0.860595703125,-0.4156494140625,-1.5954198473282444,-55.900763358778626,-44.55725190839695,walk
1604241017.3438966,0.099853515625,0.837646484375,-0.4254150390625,3.3206106870229006,-37.10687022900763,-29.38167938931298,walk
1604241017.3838966,-0.0782470703125,0.8857421875,-0.3487548828125,1.1145038167938932,-30.396946564885496,-22.15267175572519,walk
1604241017.4238966,0.022705078125,0.89892578125,-0.3421630859375,0.7404580152671756,-50.908396946564885,-6.702290076335878,walk
1604241017.4638965,0.145263671875,0.90673828125,-0.3006591796875,-6.450381679389313,-55.33587786259542,8.145038167938932,walk
1604241017.5038965,0.04150390625,0.884033203125,-0.5457763671875,-8.770992366412214,-42.12213740458015,23.923664122137403,walk
1604241017.5438964,0.06884765625,1.081298828125,-0.2928466796875,-24.00763358778626,-36.81679389312977,42.33587786259542,walk
1604241017.5838964,0.0341796875,1.288818359375,-0.4383544921875,-20.12213740458015,-75.66412213740458,65.73282442748092,walk
1604241017.6238964,0.608154296875,1.321044921875,-0.4114990234375,-35.282442748091604,-78.05343511450381,145.00763358778627,walk
1604241017.6638963,-0.0423583984375,1.4951171875,0.099365234375,-9.801526717557252,-117.38167938931298,183.3740458015267,walk
1604241017.7038963,-0.8592529296875,1.158203125,-0.2537841796875,32.954198473282446,-172.01526717557252,159.87786259541986,walk
1604241017.7438962,0.193115234375,0.8291015625,-0.4949951171875,47.20610687022901,-113.74809160305344,136.25190839694656,walk
1604241017.7838962,0.243408203125,0.736328125,-0.2247314453125,23.778625954198475,-36.47328244274809,94.07633587786259,walk
1604241017.8238962,0.17138671875,0.701171875,-0.1915283203125,8.938931297709924,37.221374045801525,48.01526717557252,walk
1604241017.8638961,0.06787109375,0.5927734375,-0.1636962890625,8.312977099236642,60.31297709923664,13.65648854961832,walk
1604241017.903896,-0.3634033203125,0.57080078125,-0.1177978515625,6.656488549618321,11.50381679389313,-14.725190839694656,walk
1604241017.943896,-0.2947998046875,0.71923828125,-0.1746826171875,-14.908396946564885,-70.42748091603053,-43.954198473282446,walk
1604241017.983896,0.16845703125,0.963623046875,-0.2015380859375,-52.82442748091603,-49.79389312977099,-69.00763358778626,walk
1604241018.023896,1.8896484375,1.476318359375,-0.6676025390625,-0.7938931297709924,-39.3206106870229,20.61832061068702,walk
1604241018.063896,0.611083984375,1.093505859375,-0.4808349609375,51.51145038167939,2.1374045801526718,15.045801526717558,walk
1604241018.103896,-0.3319091796875,1.087890625,-0.3817138671875,-3.7709923664122136,-18.236641221374047,-1.9389312977099236,walk
1604241018.1438959,0.087890625,1.30859375,-0.1204833984375,-81.86259541984732,-22.885496183206108,-11.274809160305344,walk
1604241018.1838958,0.23876953125,1.427978515625,-0.9029541015625,28.221374045801525,-121.92366412213741,35.916030534351144,walk
1604241018.2238958,-0.5228271484375,0.513427734375,-0.1488037109375,-15.526717557251908,-109.97709923664122,-37.06106870229008,walk
1604241018.2638958,0.138427734375,1.15673828125,-0.5897216796875,-13.01526717557252,-44.14503816793893,-39.93129770992366,walk
1604241018.3038957,-0.0255126953125,0.910400390625,-0.4478759765625,-24.893129770992367,-2.0381679389312977,-46.9236641221374,walk
1604241018.3438957,-0.1707763671875,0.905517578125,-0.4327392578125,-20.702290076335878,-30.076335877862597,-62.045801526717554,walk
1604241018.3838956,-0.1304931640625,0.927001953125,-0.3533935546875,-14.961832061068701,-36.732824427480914,-67.70229007633588,walk
1604241018.4238956,-0.0406494140625,0.9150390625,-0.3013916015625,-13.419847328244275,-44.717557251908396,-68.73282442748092,walk
1604241018.4638956,0.15966796875,0.892578125,-0.3455810546875,-15.770992366412214,-6.0458015267175576,-71.45038167938931,walk
1604241018.5038955,0.152587890625,0.83740234375,-0.3929443359375,-16.81679389312977,32.76335877862596,-63.38931297709924,walk
1604241018.5438955,0.014404296875,0.9296875,-0.3048095703125,-16.374045801526716,50.3587786259542,-46.458015267175576,walk
1604241018.5838954,-0.0716552734375,0.904052734375,-0.3934326171875,-14.732824427480915,24.633587786259543,-35.20610687022901,walk
1604241018.6238954,0.01806640625,1.007080078125,-0.2869873046875,-24.061068702290076,15.091603053435115,-26.549618320610687,walk
1604241018.6638954,0.178955078125,1.018798828125,-0.4171142578125,-27.198473282442748,39.82442748091603,-14.351145038167939,walk
1604241018.7038953,0.175537109375,1.106201171875,-0.4989013671875,-37.97709923664122,36.6793893129771,8.50381679389313,walk
1604241018.7438953,0.51318359375,1.223388671875,-0.5333251953125,-75.2442748091603,36.93893129770992,69.09160305343511,walk
1604241018.7838953,0.660400390625,1.080078125,-0.3802490234375,-60.7557251908397,76.54198473282443,139.74809160305344,walk
1604241018.8238952,-0.2376708984375,1.08984375,-0.5252685546875,-23.19083969465649,64.61832061068702,125.30534351145039,walk
1604241018.8638952,-0.8848876953125,1.480712890625,-0.4964599609375,58.534351145038165,-19.412213740458014,125.42748091603053,walk
1604241018.9038951,-0.0887451171875,0.72412109375,-0.6168212890625,86.64885496183206,31.34351145038168,92.95419847328245,walk
1604241018.943895,0.1064453125,0.924072265625,-0.3626708984375,72.05343511450381,80.69465648854961,63.12977099236641,walk
1604241018.983895,-0.0985107421875,0.743408203125,-0.2010498046875,87.6030534351145,128.7709923664122,21.549618320610687,walk
1604241019.023895,-0.1446533203125,0.68798828125,-0.1121826171875,75.47328244274809,153.9618320610687,-45.55725190839695,walk
1604241019.063895,-0.4549560546875,0.818359375,-0.1722412109375,57.465648854961835,89.8854961832061,-56.961832061068705,walk
1604241019.103895,-0.6827392578125,0.75439453125,-0.1361083984375,46.083969465648856,-39.847328244274806,-50.083969465648856,walk
1604241019.143895,-0.2301025390625,0.93798828125,0.032958984375,25.236641221374047,-9.625954198473282,-94.0,walk
1604241019.1838949,0.734130859375,1.20458984375,-0.8326416015625,49.05343511450382,-182.6030534351145,-0.4351145038167939,walk
1604241019.2238948,1.173095703125,1.13427734375,-0.5567626953125,28.366412213740457,9.022900763358779,2.9160305343511452,walk
1604241019.2638948,0.151611328125,1.00732421875,-0.4783935546875,7.977099236641221,-11.145038167938932,13.083969465648854,walk
1604241019.3038948,-0.4273681640625,1.069091796875,-0.2308349609375,-83.45038167938931,55.57251908396947,-33.38931297709924,walk
1604241019.3438947,0.073974609375,0.973388671875,-0.8343505859375,53.30534351145038,-28.34351145038168,16.793893129770993,walk
1604241019.3838947,-1.0184326171875,0.686279296875,0.009765625,-9.366412213740459,-119.86259541984732,-49.770992366412216,walk
1604241019.4238946,0.16162109375,1.02392578125,-0.7059326171875,-9.511450381679388,-65.87786259541984,-37.80152671755725,walk
1604241019.4638946,-0.1588134765625,0.744140625,-0.5628662109375,-2.2061068702290076,-35.458015267175576,-47.58015267175573,walk
1604241019.5038946,-0.2171630859375,0.95166015625,-0.3375244140625,-3.183206106870229,-71.63358778625954,-57.67175572519084,walk
1604241019.5438945,0.00048828125,0.86962890625,-0.3736572265625,-4.1603053435114505,-77.70992366412214,-52.229007633587784,walk
1604241019.5838945,0.1015625,0.8544921875,-0.4730224609375,0.1450381679389313,-55.00763358778626,-42.93129770992366,walk
1604241019.6238945,0.076416015625,0.90673828125,-0.4974365234375,-3.2290076335877864,-37.29770992366412,-33.38167938931298,walk
1604241019.6638944,0.05126953125,0.92724609375,-0.3843994140625,-9.954198473282442,-12.801526717557252,-34.29770992366412,walk
1604241019.7038944,0.03857421875,0.97314453125,-0.3128662109375,-11.877862595419847,-12.923664122137405,-26.946564885496183,walk
1604241019.7438943,-0.0225830078125,0.9501953125,-0.4046630859375,-7.106870229007634,-24.87786259541985,-21.702290076335878,walk
1604241019.7838943,-0.0184326171875,1.0166015625,-0.3223876953125,-9.992366412213741,-14.641221374045802,-15.427480916030534,walk
1604241019.8238943,0.0712890625,0.9765625,-0.4984130859375,-22.748091603053435,-7.305343511450381,15.19083969465649,walk
1604241019.8638942,0.37451171875,1.2841796875,-0.4561767578125,-41.66412213740458,-32.725190839694655,67.43511450381679,walk
1604241019.9038942,1.022705078125,1.224853515625,-0.4512939453125,-87.55725190839695,10.648854961832061,140.33587786259542,walk
1604241019.9438941,0.10107421875,1.2685546875,-0.1180419921875,-59.595419847328245,-7.847328244274809,177.84732824427482,walk
1604241019.983894,-0.7999267578125,1.109619140625,-0.7877197265625,27.106870229007633,-26.15267175572519,122.72519083969466,walk
1604241020.023894,-0.0982666015625,0.88037109375,-0.4356689453125,50.48091603053435,0.6106870229007634,141.26717557251908,walk
1604241020.063894,0.103515625,0.933349609375,-0.6461181640625,75.7175572519084,61.16030534351145,91.68702290076335,walk
1604241020.103894,0.072998046875,0.83984375,-0.3602294921875,58.64885496183206,138.61832061068702,37.30534351145038,walk
1604241020.143894,-0.1212158203125,0.685791015625,-0.2401123046875,76.3969465648855,169.2824427480916,-15.465648854961833,walk
1604241020.183894,-0.2232666015625,0.65185546875,-0.2926025390625,77.48091603053435,149.23664122137404,-59.51145038167939,walk
1604241020.223894,-0.4952392578125,0.835693359375,-0.1387939453125,46.31297709923664,68.79389312977099,-70.17557251908397,walk
1604241020.2638938,-0.4183349609375,0.76318359375,-0.0269775390625,12.320610687022901,28.061068702290076,-99.2824427480916,walk
1604241020.3038938,0.477294921875,1.484619140625,0.26025390625,-86.09160305343511,122.89312977099236,-111.29770992366412,walk
1604241020.3438938,1.69189453125,1.16845703125,-1.2276611328125,82.87022900763358,-54.81679389312977,10.778625954198473,walk
1604241020.3838937,-0.2462158203125,0.740966796875,-0.6585693359375,73.48091603053435,-32.82442748091603,4.251908396946565,walk
1604241020.4238937,-0.3887939453125,1.34716796875,0.072021484375,-45.33587786259542,122.77862595419847,-96.90076335877863,walk
1604241020.4638937,0.947998046875,1.714599609375,-0.2137451171875,-105.43511450381679,133.32824427480915,3.3893129770992365,walk
1604241020.5038936,-1.2467041015625,0.671630859375,0.351318359375,-23.931297709923665,53.47328244274809,-64.86259541984732,walk
1604241020.5438936,0.155029296875,0.9736328125,-0.2672119140625,2.7404580152671754,-70.47328244274809,-67.6030534351145,walk
1604241020.5838935,0.034912109375,1.06298828125,-0.4022216796875,-13.396946564885496,10.923664122137405,-63.38931297709924,walk
1604241020.6238935,0.00439453125,0.7392578125,-0.4483642578125,-4.236641221374046,27.61832061068702,-73.0,walk
1604241020.6638935,-0.2056884765625,0.918212890625,-0.3985595703125,-1.1374045801526718,7.7251908396946565,-58.87786259541985,walk
1604241020.7038934,-0.0789794921875,0.939453125,-0.2828369140625,-1.6106870229007633,3.4580152671755724,-59.37404580152672,walk
1604241020.7438934,0.0537109375,0.968017578125,-0.2269287109375,-3.2595419847328246,3.1374045801526718,-45.43511450381679,walk
1604241020.7838933,-0.0130615234375,0.89208984375,-0.3419189453125,-5.076335877862595,42.19847328244275,-48.38167938931298,walk
1604241020.8238933,-0.1883544921875,0.85400390625,-0.4266357421875,-6.015267175572519,50.17557251908397,-53.25954198473283,walk
1604241020.8638933,-0.1185302734375,0.88818359375,-0.3795166015625,-13.450381679389313,36.091603053435115,-51.02290076335878,walk
1604241020.9038932,-0.0833740234375,1.0,-0.4200439453125,-13.83206106870229,26.18320610687023,-39.48854961832061,walk
1604241020.9438932,-0.0567626953125,0.97314453125,-0.3062744140625,-23.702290076335878,16.900763358778626,-22.404580152671755,walk
1604241020.9838932,0.094482421875,0.92822265625,-0.5958251953125,-25.068702290076335,46.88549618320611,-8.427480916030534,walk
1604241021.023893,0.223876953125,1.142333984375,-0.5284423828125,-56.48854961832061,46.35114503816794,31.82442748091603,walk
1604241021.063893,0.4931640625,1.227783203125,-0.3319091796875,-93.77099236641222,48.954198473282446,103.77862595419847,walk
1604241021.103893,0.575439453125,1.11962890625,-0.2200927734375,-66.67175572519083,71.16030534351145,149.93893129770993,walk
1604241021.143893,-0.6143798828125,1.099853515625,-0.7225341796875,0.5877862595419847,80.54198473282443,105.3206106870229,walk
1604241021.183893,-0.3309326171875,1.095703125,-0.5362548828125,25.557251908396946,25.6793893129771,137.12213740458014,walk
1604241021.223893,-0.1878662109375,0.951416015625,-0.7359619140625,76.8854961832061,80.3587786259542,86.77099236641222,walk
1604241021.263893,-0.0738525390625,1.0693359375,-0.4388427734375,74.55725190839695,134.27480916030535,52.045801526717554,walk
1604241021.3038929,-0.1197509765625,0.856689453125,-0.3843994140625,87.07633587786259,179.90076335877862,8.770992366412214,walk
1604241021.3438928,-0.1065673828125,0.7373046875,-0.3092041015625,85.23664122137404,185.74809160305344,-43.81679389312977,walk
1604241021.3838928,-0.3895263671875,0.755859375,-0.2120361328125,70.01526717557252,142.50381679389312,-66.41984732824427,walk
1604241021.4238927,-0.5919189453125,0.71142578125,-0.1497802734375,52.74045801526717,74.95419847328245,-74.6793893129771,walk
1604241021.4638927,-0.0626220703125,0.978759765625,0.146240234375,-9.267175572519085,122.72519083969466,-113.99236641221374,walk
1604241021.5038927,0.80322265625,1.390625,-0.2723388671875,-18.885496183206108,18.244274809160306,-30.793893129770993,walk
1604241021.5438926,0.862548828125,0.905029296875,-0.8663330078125,42.541984732824424,43.33587786259542,-3.7709923664122136,walk
1604241021.5838926,-0.3101806640625,0.718994140625,-0.2860107421875,64.61068702290076,-41.80916030534351,-3.7404580152671754,walk
1604241021.6238925,-0.0101318359375,1.28857421875,0.353271484375,-50.717557251908396,208.41221374045801,-85.0,walk
1604241021.6638925,0.084228515625,1.503173828125,-0.4327392578125,-32.19847328244275,51.47328244274809,-16.702290076335878,walk
1604241021.7038925,-1.3016357421875,0.52783203125,0.087158203125,-7.0458015267175576,-25.946564885496183,-69.07633587786259,walk
1604241021.7438924,0.361083984375,1.236083984375,-0.3182373046875,9.114503816793894,-61.038167938931295,-65.31297709923665,walk
1604241021.7838924,0.266357421875,1.091064453125,-0.3626708984375,-14.34351145038168,44.25954198473283,-58.54961832061068,walk
1604241021.8238924,-0.0933837890625,0.791015625,-0.4407958984375,-0.7175572519083969,51.6412213740458,-71.0381679389313,walk
1604241021.8638923,-0.1854248046875,0.823974609375,-0.2962646484375,13.435114503816793,-0.7938931297709924,-68.86259541984732,walk
1604241021.9038923,-0.0623779296875,0.93994140625,-0.3131103515625,5.206106870229007,-25.412213740458014,-52.045801526717554,walk
1604241021.9438922,0.2265625,0.939208984375,-0.3741455078125,-5.221374045801527,13.068702290076336,-47.229007633587784,walk
1604241021.9838922,0.03564453125,0.900634765625,-0.3441162109375,-10.274809160305344,70.93893129770993,-51.717557251908396,walk
1604241022.0238922,-0.2630615234375,0.868408203125,-0.3475341796875,-8.84732824427481,78.97709923664122,-58.908396946564885,walk
1604241022.0638921,-0.2984619140625,0.9111328125,-0.2435302734375,-5.099236641221374,42.091603053435115,-55.282442748091604,walk
1604241022.103892,-0.1148681640625,0.95166015625,-0.3277587890625,-7.893129770992366,7.412213740458015,-38.282442748091604,walk
1604241022.143892,-0.0543212890625,0.936767578125,-0.2755126953125,-15.16793893129771,20.267175572519083,-31.076335877862597,walk
1604241022.183892,-0.0111083984375,0.949462890625,-0.4376220703125,-20.221374045801525,37.412213740458014,-12.458015267175572,walk
1604241022.223892,0.180419921875,1.08203125,-0.6400146484375,-29.541984732824428,5.893129770992366,18.19083969465649,walk
1604241022.263892,0.443115234375,1.256591796875,-0.3944091796875,-69.61068702290076,23.46564885496183,77.47328244274809,walk
1604241022.303892,0.573974609375,1.08984375,-0.2745361328125,-69.80152671755725,53.969465648854964,134.5114503816794,walk
1604241022.3438919,0.031494140625,1.024169921875,-0.2950439453125,-44.41984732824427,87.70229007633588,149.33587786259542,walk
1604241022.3838918,-0.8182373046875,1.240966796875,-0.6448974609375,36.47328244274809,21.709923664122137,100.76335877862596,walk
1604241022.4238918,-0.1331787109375,0.83447265625,-0.5145263671875,49.16030534351145,40.74045801526717,97.70992366412214,walk
1604241022.4638917,-0.0443115234375,0.975341796875,-0.4459228515625,59.68702290076336,93.58015267175573,61.3206106870229,walk
1604241022.5038917,-0.0555419921875,0.876953125,-0.2972412109375,69.48091603053435,142.38931297709922,27.85496183206107,walk
1604241022.5438917,-0.1629638671875,0.728759765625,-0.3126220703125,79.43511450381679,153.96946564885496,-23.19083969465649,walk
1604241022.5838916,-0.1986083984375,0.761962890625,-0.2371826171875,68.16030534351145,154.93129770992365,-58.57251908396947,walk
1604241022.6238916,-0.4715576171875,0.74853515625,-0.2025146484375,41.786259541984734,69.5114503816794,-66.08396946564885,walk
1604241022.6638916,-0.0213623046875,0.88330078125,0.02685546875,-10.67175572519084,103.31297709923665,-91.04580152671755,walk
1604241022.7038915,0.927978515625,1.351806640625,-0.1431884765625,-34.66412213740458,117.29007633587786,-35.87786259541985,walk
1604241022.7438915,0.64306640625,0.94140625,-0.8314208984375,57.87786259541985,46.80152671755725,-13.229007633587786,walk
1604241022.7838914,-0.2117919921875,0.68505859375,-0.3770751953125,50.61068702290076,35.52671755725191,-13.549618320610687,walk
1604241022.8238914,-0.2374267578125,1.353515625,-0.4312744140625,-11.358778625954198,97.51908396946565,-77.53435114503817,walk
1604241022.8638914,0.624267578125,1.695068359375,-0.1021728515625,-69.64885496183206,193.45038167938932,8.618320610687023,walk
1604241022.9038913,-1.1737060546875,0.63623046875,0.16015625,-40.778625954198475,45.30534351145038,-38.603053435114504,walk
1604241022.9438913,-0.2174072265625,0.96923828125,-0.3870849609375,21.50381679389313,-109.34351145038168,-87.67175572519083,walk
1604241022.9838912,0.623291015625,1.063720703125,-0.2713623046875,-20.885496183206108,61.36641221374046,-64.41984732824427,walk
1604241023.0238912,0.123779296875,0.788330078125,-0.4405517578125,-17.458015267175572,90.38167938931298,-69.69465648854961,walk
1604241023.0638912,-0.4053955078125,0.823486328125,-0.4173583984375,3.2213740458015265,52.68702290076336,-75.16793893129771,walk
1604241023.1038911,-0.2147216796875,0.98779296875,-0.2879638671875,3.122137404580153,14.442748091603054,-67.95419847328245,walk
1604241023.143891,-0.0018310546875,0.95703125,-0.2559814453125,-10.931297709923664,30.84732824427481,-67.61068702290076,walk
1604241023.183891,0.031982421875,0.873779296875,-0.3375244140625,-13.16793893129771,67.04580152671755,-61.12213740458015,walk
1604241023.223891,-0.2061767578125,0.857421875,-0.3397216796875,-15.717557251908397,91.22137404580153,-64.31297709923665,walk
1604241023.263891,-0.3187255859375,0.892333984375,-0.3021240234375,-10.709923664122137,53.969465648854964,-52.267175572519086,walk
1604241023.303891,-0.1075439453125,0.9794921875,-0.2342529296875,-12.114503816793894,25.603053435114504,-35.7557251908397,walk
1604241023.343891,0.0478515625,1.08203125,-0.2520751953125,-25.015267175572518,15.129770992366412,-12.877862595419847,walk
1604241023.3838909,0.12353515625,0.96337890625,-0.5560302734375,-34.44274809160305,58.93893129770992,-8.274809160305344,walk
1604241023.4238908,0.0732421875,1.179931640625,-0.5648193359375,-54.20610687022901,36.961832061068705,22.87786259541985,walk
1604241023.4638908,0.25390625,1.225830078125,-0.4432373046875,-63.93129770992366,52.3206106870229,62.969465648854964,walk
1604241023.5038908,0.49658203125,1.059814453125,-0.2271728515625,-66.38931297709924,54.45038167938932,124.83206106870229,walk
1604241023.5438907,-0.0020751953125,0.9970703125,-0.4388427734375,-13.549618320610687,108.9618320610687,114.59541984732824,walk
1604241023.5838907,-0.6177978515625,1.150390625,-0.5687255859375,29.68702290076336,35.83206106870229,103.42748091603053,walk
1604241023.6238906,-0.1890869140625,0.903076171875,-0.6417236328125,63.396946564885496,73.51908396946565,96.54961832061069,walk
1604241023.6638906,-0.0738525390625,0.99560546875,-0.4537353515625,71.68702290076335,97.21374045801527,63.083969465648856,walk
1604241023.7038906,-0.1375732421875,0.904541015625,-0.4051513671875,90.85496183206106,123.38931297709924,36.3206106870229,walk
1604241023.7438905,-0.0921630859375,0.740966796875,-0.3529052734375,92.32824427480917,152.80152671755727,-15.86259541984733,walk
1604241023.7838905,-0.2166748046875,0.76806640625,-0.2781982421875,77.62595419847328,139.2290076335878,-49.458015267175576,walk
1604241023.8238904,-0.3646240234375,0.766357421875,-0.1566162109375,60.38931297709924,86.93893129770993,-57.56488549618321,walk
1604241023.8638904,-0.1524658203125,0.8369140625,0.013916015625,18.85496183206107,78.91603053435115,-77.70229007633588,walk
1604241023.9038904,0.228515625,1.1455078125,-0.2056884765625,11.778625954198473,29.755725190839694,-52.02290076335878,walk
1604241023.9438903,0.9228515625,1.168701171875,-0.7073974609375,68.65648854961832,-20.84732824427481,-5.694656488549619,walk
1604241023.9838903,0.381591796875,0.92822265625,-0.3843994140625,39.80152671755725,11.106870229007633,11.045801526717558,walk
1604241024.0238903,-0.0914306640625,1.46533203125,-0.5909423828125,-5.404580152671755,27.633587786259543,-33.79389312977099,walk
1604241024.0638902,0.4853515625,1.076171875,-0.4139404296875,-66.69465648854961,187.0763358778626,-20.16793893129771,walk
1604241024.1038902,-0.9725341796875,0.7353515625,0.177978515625,-28.83969465648855,24.671755725190838,-37.29007633587786,walk
1604241024.1438901,0.206787109375,1.307861328125,-0.2960205078125,13.19083969465649,-55.038167938931295,-78.80152671755725,walk
1604241024.18389,0.05029296875,1.015869140625,-0.2501220703125,-21.114503816793892,33.00763358778626,-58.0763358778626,walk
1604241024.22389,-0.2667236328125,0.74658203125,-0.4776611328125,6.412213740458015,-26.404580152671755,-68.97709923664122,walk
1604241024.26389,-0.2130126953125,0.959228515625,-0.3809814453125,11.82442748091603,-51.717557251908396,-64.77862595419847,walk
1604241024.30389,0.008544921875,0.910400390625,-0.3524169921875,4.213740458015267,-53.98473282442748,-54.76335877862596,walk
1604241024.34389,0.080322265625,0.88671875,-0.3985595703125,2.198473282442748,-21.610687022900763,-55.045801526717554,walk
1604241024.38389,0.046630859375,0.868408203125,-0.4080810546875,-0.5190839694656488,4.404580152671755,-51.67175572519084,walk
1604241024.4238899,-0.1165771484375,0.880126953125,-0.3304443359375,-3.954198473282443,10.648854961832061,-43.68702290076336,walk
1604241024.4638898,-0.1949462890625,0.914306640625,-0.3074951171875,0.31297709923664124,-13.580152671755725,-32.3206106870229,walk
1604241024.5038898,-0.0343017578125,0.9755859375,-0.3519287109375,-4.740458015267175,-26.259541984732824,-22.954198473282442,walk
1604241024.5438898,0.01904296875,0.92041015625,-0.4942626953125,-12.770992366412214,2.572519083969466,-17.52671755725191,walk
1604241024.5838897,-0.0543212890625,1.02978515625,-0.4854736328125,-21.14503816793893,-3.5801526717557253,9.13740458015267,walk
1604241024.6238897,0.1640625,1.35302734375,-0.4180908203125,-36.49618320610687,-27.374045801526716,59.3587786259542,walk
1604241024.6638896,0.560791015625,1.25341796875,-0.2266845703125,-53.267175572519086,-21.229007633587788,128.46564885496184,walk
1604241024.7038896,0.157470703125,1.1474609375,0.121826171875,-24.580152671755727,-30.96946564885496,155.6946564885496,walk
1604241024.7438896,-0.8045654296875,1.205078125,-0.4346923828125,39.595419847328245,-74.87786259541984,112.69465648854961,walk
1604241024.7838895,0.009521484375,0.85009765625,-0.3250732421875,35.37404580152672,-56.33587786259542,116.09923664122137,walk
1604241024.8238895,-0.0804443359375,0.846923828125,-0.3006591796875,55.55725190839695,-34.458015267175576,88.58015267175573,walk
1604241024.8638895,-0.0516357421875,0.805908203125,-0.1104736328125,58.25190839694657,2.2519083969465647,64.02290076335878,walk
1604241024.9038894,-0.0086669921875,0.6982421875,-0.0892333984375,59.69465648854962,53.33587786259542,6.824427480916031,walk
1604241024.9438894,-0.2740478515625,0.633056640625,-0.2008056640625,59.43511450381679,34.42748091603053,-28.435114503816795,walk
1604241024.9838893,-0.7425537109375,0.743408203125,-0.1844482421875,32.81679389312977,-67.61068702290076,-37.18320610687023,walk
1604241025.0238893,-0.3631591796875,0.91552734375,-0.0147705078125,7.778625954198473,-113.37404580152672,-41.61068702290076,walk
1604241025.0638893,0.755126953125,1.051025390625,-0.8814697265625,62.51908396946565,-203.3969465648855,-13.251908396946565,walk
1604241025.1038892,1.524169921875,1.24365234375,-0.5997314453125,-1.099236641221374,-14.412213740458014,15.061068702290076,walk
1604241025.1438892,0.074462890625,1.156005859375,-0.3018798828125,-17.85496183206107,-12.885496183206106,5.778625954198473,walk
1604241025.1838892,-0.8536376953125,0.922607421875,-0.2247314453125,-11.007633587786259,-85.06106870229007,-40.19847328244275,walk
1604241025.223889,0.40966796875,0.99658203125,-0.1461181640625,-48.74045801526717,-85.56488549618321,-0.030534351145038167,walk
1604241025.263889,-0.2596435546875,0.93505859375,-0.3094482421875,27.564885496183205,-11.045801526717558,-49.50381679389313,walk
1604241025.303889,-0.1109619140625,0.87939453125,-0.0091552734375,-13.213740458015268,-67.0,-15.32824427480916,walk
1604241025.343889,-0.7271728515625,0.69677734375,-0.8787841796875,18.984732824427482,-66.01526717557252,-24.16030534351145,walk
1604241025.383889,0.2001953125,0.92578125,-0.4632568359375,17.267175572519083,-48.55725190839695,-6.473282442748092,walk
1604241025.423889,-0.1336669921875,0.89990234375,-0.2464599609375,9.587786259541986,-84.22900763358778,2.984732824427481,walk
1604241025.463889,-0.2327880859375,0.85009765625,-0.4461669921875,9.374045801526718,-78.8473282442748,7.511450381679389,walk
1604241025.5038888,-0.2152099609375,0.849609375,-0.4212646484375,9.86259541984733,-69.6412213740458,3.1603053435114505,walk
1604241025.5438888,-0.1697998046875,0.9150390625,-0.4122314453125,2.045801526717557,-76.06870229007633,-0.6641221374045801,walk
1604241025.5838888,-0.0443115234375,0.885498046875,-0.4425048828125,0.4198473282442748,-70.3969465648855,-0.22900763358778625,walk
1604241025.6238887,-0.1326904296875,0.958740234375,-0.3870849609375,0.20610687022900764,-68.21374045801527,10.282442748091603,walk
1604241025.6638887,-0.0628662109375,0.95947265625,-0.4757080078125,-1.0458015267175573,-64.04580152671755,14.244274809160306,walk
1604241025.7038887,0.029296875,0.912109375,-0.5089111328125,-1.4885496183206106,-43.20610687022901,20.16793893129771,walk
1604241025.7438886,-0.0416259765625,0.9990234375,-0.4432373046875,-9.236641221374045,-59.0763358778626,45.57251908396947,walk
1604241025.7838886,0.251953125,1.216552734375,-0.3741455078125,-24.34351145038168,-94.02290076335878,93.98473282442748,walk
1604241025.8238885,0.45458984375,1.337646484375,-0.0999755859375,-35.79389312977099,-92.7557251908397,156.24427480916032,walk
1604241025.8638885,-0.0513916015625,1.227783203125,0.15087890625,-10.84732824427481,-124.19847328244275,185.0916030534351,walk
1604241025.9038885,-0.9281005859375,1.0849609375,-0.2178955078125,34.847328244274806,-224.6946564885496,164.34351145038167,walk
1604241025.9438884,0.304443359375,0.955810546875,-0.6495361328125,29.15267175572519,-77.51908396946565,134.29770992366412,walk
1604241025.9838884,0.383544921875,0.78125,-0.2471923828125,24.549618320610687,-41.587786259541986,113.22137404580153,walk
1604241026.0238883,0.078857421875,0.748046875,-0.1978759765625,27.366412213740457,23.587786259541986,68.86259541984732,walk
1604241026.0638883,0.16748046875,0.64599609375,-0.2369384765625,11.931297709923664,36.93893129770992,33.11450381679389,walk
1604241026.1038883,-0.1143798828125,0.622314453125,-0.1231689453125,11.16793893129771,25.595419847328245,10.65648854961832,walk
1604241026.1438882,-0.2947998046875,0.630859375,-0.1011962890625,6.0,-42.57251908396947,-9.534351145038167,walk
1604241026.1838882,0.09326171875,0.84375,-0.2103271484375,-18.00763358778626,-62.35114503816794,-47.17557251908397,walk
1604241026.2238882,0.988037109375,1.214111328125,-0.2257080078125,-67.25190839694656,15.442748091603054,-45.900763358778626,walk
1604241026.2638881,1.211181640625,1.075439453125,-0.5223388671875,-27.00763358778626,50.404580152671755,-28.0,walk
1604241026.303888,0.163818359375,1.033447265625,-0.5213623046875,25.9618320610687,-3.7709923664122136,0.5419847328244275,walk
1604241026.343888,-0.4913330078125,1.06591796875,-0.2159423828125,8.419847328244275,-82.66412213740458,-13.290076335877863,walk
1604241026.383888,0.65283203125,1.220947265625,-0.1346435546875,-70.80916030534351,2.068702290076336,-17.12213740458015,walk
1604241026.423888,-0.1571044921875,1.410888671875,-0.0687255859375,-46.29007633587786,0.8931297709923665,-9.48091603053435,walk
1604241026.463888,-0.1793212890625,0.638916015625,-0.3404541015625,-26.27480916030534,-67.36641221374046,-37.12977099236641,walk
1604241026.503888,-0.0020751953125,1.02001953125,-0.5369873046875,-16.374045801526716,-25.045801526717558,-53.16030534351145,walk
1604241026.5438879,-0.0069580078125,0.881103515625,-0.3895263671875,-17.061068702290076,-8.404580152671755,-55.61832061068702,walk
1604241026.5838878,-0.0858154296875,0.871337890625,-0.4049072265625,-13.251908396946565,-17.35114503816794,-60.69465648854962,walk
1604241026.6238878,-0.0557861328125,0.937255859375,-0.3072509765625,-13.687022900763358,-27.480916030534353,-55.54961832061068,walk
1604241026.6638877,0.173095703125,0.937744140625,-0.2830810546875,-20.427480916030536,0.7099236641221374,-46.45038167938932,walk
1604241026.7038877,0.08251953125,0.9140625,-0.3323974609375,-18.083969465648856,29.366412213740457,-43.9236641221374,walk
1604241026.7438877,-0.1331787109375,0.9052734375,-0.3077392578125,-18.068702290076335,43.74809160305343,-46.68702290076336,walk
1604241026.7838876,-0.1278076171875,0.905029296875,-0.3548583984375,-16.68702290076336,40.51145038167939,-41.86259541984733,walk
1604241026.8238876,-0.0267333984375,0.958251953125,-0.3988037109375,-19.954198473282442,38.595419847328245,-47.3587786259542,walk
1604241026.8638875,-0.0557861328125,1.060791015625,-0.2440185546875,-27.061068702290076,52.030534351145036,-37.32824427480916,walk
1604241026.9038875,0.17529296875,1.03369140625,-0.4696044921875,-25.908396946564885,61.49618320610687,-21.480916030534353,walk
1604241026.9438875,0.227294921875,1.035400390625,-0.5836181640625,-39.06870229007634,63.587786259541986,-4.022900763358779,walk
1604241026.9838874,0.407958984375,1.17626953125,-0.4432373046875,-77.92366412213741,72.85496183206106,55.725190839694655,walk
1604241027.0238874,0.51318359375,1.10302734375,-0.3492431640625,-70.35114503816794,84.92366412213741,128.6793893129771,walk
1604241027.0638874,-0.1888427734375,1.091064453125,-0.5909423828125,-18.870229007633586,80.74045801526718,115.38167938931298,walk
1604241027.1038873,-0.7940673828125,1.265380859375,-0.5428466796875,25.297709923664122,-5.137404580152672,113.58778625954199,walk
1604241027.1438873,-0.0919189453125,0.773193359375,-0.5313720703125,57.25954198473283,44.51908396946565,88.55725190839695,walk
1604241027.1838872,0.06103515625,0.916015625,-0.3499755859375,53.16030534351145,93.51908396946565,60.25190839694657,walk
1604241027.2238872,-0.1199951171875,0.75732421875,-0.3028564453125,79.12977099236642,125.33587786259542,29.977099236641223,walk
1604241027.2638872,0.0048828125,0.74169921875,-0.3482666015625,76.97709923664122,150.31297709923663,-22.82442748091603,walk
1604241027.3038871,-0.3709716796875,0.919921875,-0.3397216796875,60.81679389312977,138.38167938931298,-40.083969465648856,walk
1604241027.343887,-0.5731201171875,0.7998046875,-0.2003173828125,53.732824427480914,74.58778625954199,-43.48854961832061,walk
1604241027.383887,-0.1585693359375,0.890625,0.0576171875,34.25954198473283,96.19847328244275,-88.68702290076335,walk
1604241027.423887,0.582763671875,1.216552734375,0.04833984375,-34.54961832061068,94.6412213740458,-42.93129770992366,walk
1604241027.463887,0.914794921875,1.187255859375,-0.7298583984375,41.25954198473283,-4.213740458015267,0.5801526717557252,walk
1604241027.503887,-0.1434326171875,0.750732421875,-0.5003662109375,45.14503816793893,-12.526717557251908,9.427480916030534,walk
1604241027.543887,-0.4285888671875,1.370361328125,0.145263671875,-46.61832061068702,129.73282442748092,-88.76335877862596,walk
1604241027.5838869,0.64306640625,1.497314453125,-0.3463134765625,-29.34351145038168,41.57251908396947,0.5648854961832062,walk
1604241027.6238868,-1.3109130859375,0.538330078125,0.089599609375,-10.854961832061068,11.19083969465649,-77.09923664122137,walk
1604241027.6638868,0.323486328125,1.192626953125,-0.4810791015625,0.4351145038167939,-39.87786259541985,-67.27480916030534,walk
1604241027.7038867,0.04150390625,0.908203125,-0.3787841796875,-11.335877862595419,21.35114503816794,-71.16030534351145,walk
1604241027.7438867,-0.1629638671875,0.837890625,-0.3760986328125,0.8931297709923665,4.801526717557252,-79.92366412213741,walk
1604241027.7838867,-0.0943603515625,0.883056640625,-0.3157958984375,-3.877862595419847,-12.86259541984733,-80.80916030534351,walk
1604241027.8238866,-0.0296630859375,0.899658203125,-0.3199462890625,3.7786259541984735,-7.603053435114504,-72.19083969465649,walk
1604241027.8638866,0.116943359375,0.89697265625,-0.3487548828125,1.8015267175572518,12.587786259541986,-57.6793893129771,walk
1604241027.9038866,-0.1099853515625,0.897216796875,-0.3140869140625,-2.5419847328244276,37.80916030534351,-48.81679389312977,walk
1604241027.9438865,-0.2362060546875,0.907958984375,-0.2764892578125,-1.4961832061068703,27.328244274809162,-42.02290076335878,walk
1604241027.9838865,-0.0247802734375,0.939697265625,-0.3941650390625,0.2824427480916031,4.351145038167939,-36.70229007633588,walk
1604241028.0238864,-0.0557861328125,0.994873046875,-0.3463134765625,-9.022900763358779,8.610687022900763,-26.610687022900763,walk
1604241028.0638864,-0.1148681640625,0.9794921875,-0.4727783203125,-17.14503816793893,18.977099236641223,-13.717557251908397,walk
1604241028.1038864,-0.0137939453125,1.141357421875,-0.4598388671875,-20.541984732824428,1.7633587786259541,8.916030534351146,walk
1604241028.1438863,0.4208984375,1.26025390625,-0.4461669921875,-53.06870229007634,-12.412213740458014,70.61068702290076,walk
1604241028.1838863,0.7236328125,1.073486328125,-0.2108154296875,-66.51908396946565,24.061068702290076,138.4351145038168,walk
1604241028.2238863,0.0205078125,1.033935546875,-0.1717529296875,-26.19083969465649,46.70229007633588,141.67175572519085,walk
1604241028.2638862,-0.8553466796875,1.365478515625,-0.6641845703125,48.88549618320611,-26.450381679389313,104.40458015267176,walk
1604241028.3038862,-0.0960693359375,0.8330078125,-0.4803466796875,30.916030534351144,2.145038167938931,119.9618320610687,walk
1604241028.3438861,-0.0711669921875,0.9189453125,-0.2784423828125,60.152671755725194,6.1603053435114505,90.00763358778626,walk
1604241028.383886,-0.0985107421875,0.74609375,-0.0941162109375,71.38931297709924,60.63358778625954,56.67175572519084,walk
1604241028.423886,-0.0462646484375,0.611083984375,-0.1317138671875,71.98473282442748,91.46564885496183,-1.4961832061068703,walk
1604241028.463886,-0.2901611328125,0.689208984375,-0.2091064453125,62.7557251908397,75.10687022900764,-40.36641221374046,walk
1604241028.503886,-0.6197509765625,0.7412109375,-0.1822509765625,22.51145038167939,-17.83206106870229,-53.23664122137404,walk
1604241028.543886,-0.2310791015625,0.939697265625,0.109375,-20.793893129770993,16.236641221374047,-88.27480916030534,walk
1604241028.583886,1.33935546875,1.427978515625,-0.9432373046875,16.923664122137403,-80.23664122137404,11.198473282442748,walk
1604241028.6238859,0.89794921875,1.02197265625,-0.4627685546875,69.78625954198473,-21.290076335877863,17.18320610687023,walk
1604241028.6638858,-0.6676025390625,1.22412109375,-0.4285888671875,-8.770992366412214,-55.44274809160305,-6.748091603053435,walk
1604241028.7038858,0.559814453125,1.193115234375,-0.4644775390625,-67.32824427480917,131.2824427480916,-45.18320610687023,walk
1604241028.7438858,-0.4180908203125,0.99658203125,0.23046875,-21.519083969465647,4.549618320610687,-13.572519083969466,walk
1604241028.7838857,-0.0291748046875,0.9248046875,-0.3770751953125,-5.603053435114504,-86.87786259541984,-56.045801526717554,walk
1604241028.8238857,-0.0555419921875,0.90185546875,-0.4620361328125,-7.297709923664122,-38.045801526717554,-47.458015267175576,walk
1604241028.8638856,-0.1585693359375,0.837158203125,-0.5301513671875,4.694656488549619,-42.6412213740458,-55.38931297709924,walk
1604241028.9038856,-0.1019287109375,0.9462890625,-0.3404541015625,-3.0610687022900764,-52.595419847328245,-60.76335877862596,walk
1604241028.9438856,-0.0587158203125,0.84765625,-0.3165283203125,3.312977099236641,-34.282442748091604,-63.17557251908397,walk
1604241028.9838855,0.056884765625,0.87890625,-0.2823486328125,0.7557251908396947,-18.9618320610687,-48.282442748091604,walk
1604241029.0238855,-0.0350341796875,0.87109375,-0.3919677734375,-5.152671755725191,-10.854961832061068,-38.396946564885496,walk
1604241029.0638855,-0.0189208984375,0.93212890625,-0.2540283203125,-7.282442748091603,-2.5267175572519083,-27.755725190839694,walk
1604241029.1038854,-0.0552978515625,0.901123046875,-0.3712158203125,-11.083969465648854,-15.755725190839694,-28.114503816793892,walk
1604241029.1438854,0.113525390625,1.0078125,-0.2672119140625,-19.770992366412212,-2.4732824427480917,-21.580152671755727,walk
1604241029.1838853,0.02392578125,0.95361328125,-0.4696044921875,-26.12213740458015,12.488549618320612,-9.83969465648855,walk
1604241029.2238853,0.15966796875,1.04638671875,-0.3472900390625,-45.961832061068705,6.99236641221374,19.931297709923665,walk
1604241029.2638853,0.406982421875,1.167236328125,-0.5738525390625,-56.79389312977099,12.900763358778626,65.63358778625954,walk
1604241029.3038852,0.657470703125,1.179443359375,-0.3038330078125,-64.13740458015268,38.847328244274806,137.90076335877862,walk
1604241029.3438852,-0.2320556640625,1.163330078125,-0.3931884765625,-4.679389312977099,38.45038167938932,129.48091603053436,walk
1604241029.3838851,-0.6895751953125,1.391845703125,-0.2593994140625,40.396946564885496,-63.16793893129771,134.45801526717557,walk
1604241029.423885,-0.0062255859375,0.82666015625,-0.6361083984375,51.67175572519084,-3.0839694656488548,117.16793893129771,walk
1604241029.463885,0.03564453125,0.863525390625,-0.2012939453125,51.030534351145036,-11.15267175572519,77.3206106870229,walk
1604241029.503885,-0.0155029296875,0.76708984375,-0.2467041015625,57.38931297709924,78.1526717557252,36.37404580152672,walk
1604241029.543885,0.021240234375,0.714599609375,-0.2523193359375,53.13740458015267,100.10687022900764,-12.86259541984733,walk
1604241029.583885,-0.4063720703125,0.753662109375,-0.2769775390625,32.282442748091604,68.94656488549619,-39.20610687022901,walk
1604241029.623885,-0.3277587890625,0.7880859375,-0.0606689453125,-9.419847328244275,58.35114503816794,-75.22900763358778,walk
1604241029.6638849,0.363037109375,1.161865234375,0.063232421875,-64.01526717557252,155.83969465648855,-105.43511450381679,walk
1604241029.7038848,1.482421875,1.18701171875,-0.7794189453125,11.229007633587786,64.2824427480916,-2.6717557251908395,walk
1604241029.7438848,-0.0706787109375,0.814453125,-0.3629150390625,53.969465648854964,30.633587786259543,-10.290076335877863,walk
1604241029.7838848,-0.7437744140625,0.63623046875,0.34375,-21.106870229007633,66.90076335877863,-60.961832061068705,walk
1604241029.8238847,0.875,1.81689453125,-0.8599853515625,-60.87786259541985,-35.12213740458015,-6.893129770992366,walk
1604241029.8638847,-0.5426025390625,0.766845703125,0.095703125,-44.786259541984734,80.29770992366412,-32.38931297709924,walk
1604241029.9038846,0.06787109375,0.87109375,-0.5059814453125,-0.26717557251908397,-22.557251908396946,-72.6793893129771,walk
1604241029.9438846,-0.0616455078125,1.00146484375,-0.3035888671875,-7.526717557251908,40.51908396946565,-77.94656488549619,walk
1604241029.9838846,-0.1236572265625,0.94189453125,-0.3214111328125,0.29770992366412213,8.198473282442748,-66.7175572519084,walk
1604241030.0238845,-0.1224365234375,0.96435546875,-0.2794189453125,1.3893129770992367,-2.1755725190839694,-68.25954198473282,walk
1604241030.0638845,0.019287109375,0.93212890625,-0.3729248046875,5.251908396946565,1.916030534351145,-58.43511450381679,walk
1604241030.1038845,0.016357421875,0.8818359375,-0.3763427734375,-1.0381679389312977,36.70992366412214,-54.81679389312977,walk
1604241030.1438844,-0.0252685546875,0.931640625,-0.2960205078125,-13.854961832061068,65.70992366412214,-48.79389312977099,walk
1604241030.1838844,-0.2337646484375,0.91015625,-0.3175048828125,-8.679389312977099,42.48854961832061,-43.42748091603053,walk
1604241030.2238843,-0.1358642578125,0.970947265625,-0.2882080078125,-12.618320610687023,28.442748091603054,-38.49618320610687,walk
1604241030.2638843,-0.0845947265625,0.960693359375,-0.2664794921875,-19.12213740458015,35.16030534351145,-34.343511450381676,walk
1604241030.3038843,0.09619140625,1.0546875,-0.3514404296875,-31.458015267175572,50.412213740458014,-18.374045801526716,walk
1604241030.3438842,0.148193359375,0.98291015625,-0.4864501953125,-37.48091603053435,41.69465648854962,1.5038167938931297,walk
1604241030.3838842,0.28173828125,1.223876953125,-0.5321044921875,-50.847328244274806,55.152671755725194,40.38931297709924,walk
1604241030.4238842,0.4873046875,1.137939453125,-0.2828369140625,-68.64885496183206,67.76335877862596,99.32824427480917,walk
1604241030.463884,0.089599609375,0.947265625,-0.4263916015625,-18.580152671755727,74.1526717557252,115.20610687022901,walk
1604241030.503884,-0.5465087890625,1.26220703125,-0.7852783203125,20.213740458015266,31.374045801526716,90.87022900763358,walk
1604241030.543884,-0.0792236328125,0.99462890625,-0.5093994140625,37.19847328244275,78.91603053435115,90.76335877862596,walk
1604241030.583884,-0.1378173828125,0.9736328125,-0.3912353515625,54.69465648854962,72.34351145038168,66.25190839694656,walk
1604241030.623884,-0.2237548828125,0.8408203125,-0.1981201171875,71.55725190839695,90.37404580152672,41.54961832061068,walk
1604241030.663884,-0.0191650390625,0.784423828125,-0.1934814453125,71.43511450381679,128.5114503816794,-2.122137404580153,walk
1604241030.703884,-0.2076416015625,0.811279296875,-0.2052001953125,60.152671755725194,103.7175572519084,-23.83206106870229,walk
1604241030.7438838,-0.5093994140625,0.808837890625,-0.0814208984375,46.6793893129771,36.30534351145038,-29.27480916030534,walk
1604241030.7838838,-0.2176513671875,0.8427734375,0.053466796875,10.801526717557252,41.038167938931295,-61.33587786259542,walk
1604241030.8238838,0.322509765625,1.09716796875,-0.1448974609375,-26.740458015267176,38.64885496183206,-48.83969465648855,walk
1604241030.8638837,0.996826171875,1.128662109375,-0.7208251953125,51.587786259541986,-68.90839694656489,-1.251908396946565,walk
1604241030.9038837,0.2236328125,0.856201171875,-0.5628662109375,62.86259541984733,-31.564885496183205,26.50381679389313,walk
1604241030.9438837,-0.0721435546875,1.328125,-0.5159912109375,-17.374045801526716,11.221374045801527,-40.6412213740458,walk
1604241030.9838836,0.72705078125,1.33349609375,-0.4425048828125,-62.2442748091603,186.33587786259542,-30.870229007633586,walk
1604241031.0238836,-1.0003662109375,0.988525390625,0.455078125,-33.908396946564885,27.549618320610687,-28.396946564885496,walk
1604241031.0638835,-0.0548095703125,0.953369140625,-0.3143310546875,5.923664122137405,-76.81679389312977,-67.70229007633588,walk
1604241031.1038835,-0.0335693359375,0.89794921875,-0.4840087890625,-0.9694656488549618,-46.57251908396947,-46.74809160305343,walk
1604241031.1438835,-0.0255126953125,0.87060546875,-0.4827880859375,6.343511450381679,-34.94656488549618,-54.74045801526717,walk
1604241031.1838834,-0.1507568359375,0.874755859375,-0.3753662109375,2.3435114503816794,-52.396946564885496,-57.045801526717554,walk
1604241031.2238834,-0.0313720703125,0.89892578125,-0.4034423828125,5.793893129770993,-49.603053435114504,-47.51145038167939,walk
1604241031.2638834,-0.0140380859375,0.88427734375,-0.4024658203125,0.4122137404580153,-29.213740458015266,-50.3587786259542,walk
1604241031.3038833,0.060302734375,0.87744140625,-0.3885498046875,-4.366412213740458,1.0534351145038168,-46.94656488549618,walk
1604241031.3438833,-0.1090087890625,0.90478515625,-0.3258056640625,-4.557251908396947,4.122137404580153,-38.717557251908396,walk
1604241031.3838832,0.013671875,0.994873046875,-0.4222412109375,-3.198473282442748,-3.1908396946564888,-31.251908396946565,walk
1604241031.4238832,-0.0328369140625,0.985595703125,-0.3331298828125,-5.66412213740458,-10.977099236641221,-27.572519083969464,walk
1604241031.4638832,0.087890625,1.000244140625,-0.4857177734375,-8.114503816793894,11.893129770992367,-13.870229007633588,walk
1604241031.5038831,0.061767578125,1.0322265625,-0.4852294921875,-25.290076335877863,-1.5954198473282444,12.687022900763358,walk
1604241031.543883,0.211669921875,1.341552734375,-0.4835205078125,-45.732824427480914,-4.358778625954199,51.969465648854964,walk
1604241031.583883,0.445556640625,1.276611328125,-0.1234130859375,-67.55725190839695,7.442748091603053,116.3969465648855,walk
1604241031.623883,0.17138671875,0.892578125,-0.2271728515625,-22.022900763358777,-6.305343511450381,147.57251908396947,walk
1604241031.663883,-0.7449951171875,1.1953125,-0.4388427734375,14.229007633587786,-61.44274809160305,109.6412213740458,walk
1604241031.703883,0.00244140625,1.00439453125,-0.4207763671875,27.35114503816794,4.480916030534351,105.13740458015268,walk
1604241031.743883,-0.1397705078125,0.85986328125,-0.3223876953125,31.85496183206107,-1.015267175572519,80.96946564885496,walk
1604241031.7838829,-0.1224365234375,0.791259765625,-0.1622314453125,49.67175572519084,29.106870229007633,58.37404580152672,walk
1604241031.8238828,0.033935546875,0.69091796875,-0.1390380859375,54.36641221374046,70.52671755725191,10.030534351145038,walk
1604241031.8638828,-0.1844482421875,0.779052734375,-0.1612548828125,49.38167938931298,61.63358778625954,-24.908396946564885,walk
1604241031.9038827,-0.5216064453125,0.8359375,-0.1739501953125,29.198473282442748,-15.01526717557252,-29.908396946564885,walk
1604241031.9438827,-0.4903564453125,0.7587890625,0.041259765625,11.061068702290076,-37.54961832061068,-55.74809160305343,walk
1604241031.9838827,0.27001953125,1.0869140625,-0.3472900390625,20.0,-105.27480916030534,-32.6793893129771,walk
1604241032.0238826,1.667724609375,1.3134765625,-0.7366943359375,32.82442748091603,-52.083969465648856,11.236641221374045,walk
1604241032.0638826,0.097412109375,1.394775390625,-0.5628662109375,26.366412213740457,-14.541984732824428,3.114503816793893,walk
1604241032.1038826,-0.2049560546875,1.136474609375,-0.6641845703125,-94.52671755725191,67.46564885496183,9.770992366412214,walk
1604241032.1438825,-0.3001708984375,1.0302734375,-0.0968017578125,0.5572519083969466,-7.122137404580153,-5.679389312977099,walk
1604241032.1838825,-0.2955322265625,0.9873046875,-0.3309326171875,1.2595419847328244,-85.90839694656489,-63.48854961832061,walk
1604241032.2238824,0.11572265625,0.95703125,-0.3638916015625,-5.541984732824427,-18.282442748091604,-38.030534351145036,walk
1604241032.2638824,-0.3292236328125,0.78857421875,-0.5069580078125,8.458015267175572,-43.32824427480916,-41.00763358778626,walk
1604241032.3038824,-0.1585693359375,0.915283203125,-0.3858642578125,6.587786259541985,-68.54198473282443,-44.14503816793893,walk
1604241032.3438823,0.010986328125,0.90771484375,-0.4007568359375,4.755725190839694,-58.465648854961835,-38.50381679389313,walk
1604241032.3838823,0.064208984375,0.88525390625,-0.3668212890625,1.0458015267175573,-32.099236641221374,-30.19083969465649,walk
1604241032.4238822,-0.0601806640625,0.87255859375,-0.3570556640625,3.900763358778626,-21.99236641221374,-22.83206106870229,walk
1604241032.4638822,-0.1668701171875,0.891845703125,-0.2879638671875,3.312977099236641,-31.870229007633586,-9.404580152671755,walk
1604241032.5038822,-0.1690673828125,0.914306640625,-0.3135986328125,-1.916030534351145,-62.67175572519084,6.030534351145038,walk
1604241032.5438821,0.071533203125,0.980224609375,-0.3577880859375,-2.732824427480916,-45.465648854961835,4.870229007633588,walk
1604241032.583882,0.013427734375,0.85791015625,-0.4913330078125,-10.557251908396946,-20.061068702290076,8.488549618320612,walk
1604241032.623882,-0.0548095703125,1.0419921875,-0.4078369140625,-16.213740458015266,-35.51908396946565,32.9236641221374,walk
1604241032.663882,-0.0181884765625,1.22509765625,-0.2911376953125,-25.80916030534351,-52.961832061068705,67.10687022900764,walk
1604241032.703882,0.44873046875,1.25244140625,-0.1986083984375,-30.625954198473284,-103.4885496183206,134.19847328244273,walk
1604241032.743882,0.062255859375,1.282470703125,0.068115234375,-28.083969465648856,-106.00763358778626,164.18320610687022,walk
1604241032.783882,-0.7532958984375,0.9658203125,-0.1112060546875,9.076335877862595,-172.3053435114504,134.46564885496184,walk
1604241032.8238819,-0.2142333984375,1.0390625,-0.2855224609375,4.427480916030534,-134.27480916030535,118.78625954198473,walk
1604241032.8638818,0.15576171875,0.783935546875,-0.3626708984375,6.8320610687022905,-62.85496183206107,89.79389312977099,walk
1604241032.9038818,0.1513671875,0.721435546875,-0.1656494140625,1.9923664122137406,-25.053435114503817,58.01526717557252,walk
1604241032.9438818,0.157958984375,0.79638671875,-0.1602783203125,-2.549618320610687,28.53435114503817,6.6183206106870225,walk
1604241032.9838817,-0.1199951171875,0.730224609375,-0.1219482421875,-9.610687022900763,26.435114503816795,-9.793893129770993,walk
1604241033.0238817,-0.3416748046875,0.722900390625,-0.1356201171875,-8.282442748091603,-61.083969465648856,-23.061068702290076,walk
1604241033.0638816,-0.1099853515625,0.75830078125,-0.3304443359375,20.068702290076335,-151.8091603053435,-35.038167938931295,walk
1604241033.1038816,0.544921875,0.8515625,-0.5059814453125,48.76335877862596,-164.24427480916032,-12.312977099236642,walk
1604241033.1438816,1.13916015625,1.223876953125,-0.3736572265625,-3.183206106870229,-61.6412213740458,14.17557251908397,walk
1604241033.1838815,0.4775390625,0.985107421875,-0.5504150390625,47.030534351145036,-55.778625954198475,19.900763358778626,walk
1604241033.2238815,-0.1087646484375,0.92236328125,-0.1409912109375,2.450381679389313,-51.595419847328245,-30.480916030534353,walk
1604241033.2638814,-0.2381591796875,1.203857421875,-0.3314208984375,-29.923664122137403,-40.13740458015267,-74.16030534351145,walk
1604241033.3038814,0.70556640625,1.443359375,0.04541015625,-49.31297709923664,15.549618320610687,-12.786259541984732,walk
1604241033.3438814,-0.3536376953125,0.85205078125,-0.4664306640625,22.603053435114504,6.282442748091603,-44.79389312977099,walk
1604241033.3838813,-0.3492431640625,0.83056640625,0.240478515625,-30.541984732824428,-116.09923664122137,-22.564885496183205,walk
1604241033.4238813,0.00830078125,0.91552734375,-0.7850341796875,31.221374045801525,-35.12213740458015,-18.435114503816795,walk
1604241033.4638813,-0.1153564453125,0.908447265625,-0.3809814453125,1.1908396946564885,-10.221374045801527,-25.84732824427481,walk
1604241033.5038812,-0.1541748046875,0.9111328125,-0.3421630859375,16.572519083969464,-16.66412213740458,-17.96946564885496,walk
1604241033.5438812,-0.1868896484375,0.913330078125,-0.3314208984375,21.35114503816794,-78.67175572519083,6.557251908396947,walk
1604241033.5838811,-0.0892333984375,0.824951171875,-0.4608154296875,30.50381679389313,-83.33587786259542,27.595419847328245,walk
1604241033.623881,0.02587890625,0.84228515625,-0.5518798828125,17.908396946564885,-35.229007633587784,18.31297709923664,walk
1604241033.663881,-0.0740966796875,0.93115234375,-0.2879638671875,3.3740458015267176,-36.229007633587784,16.610687022900763,walk
1604241033.703881,-0.1126708984375,0.910400390625,-0.3236083984375,1.4885496183206106,-54.74809160305343,21.671755725190838,walk
1604241033.743881,-0.0340576171875,0.953857421875,-0.2506103515625,9.099236641221374,-54.595419847328245,29.87786259541985,walk
1604241033.783881,-0.0899658203125,0.873046875,-0.2906494140625,-4.358778625954199,-45.20610687022901,38.02290076335878,walk
1604241033.823881,-0.1536865234375,0.904541015625,-0.3377685546875,-2.282442748091603,-69.05343511450381,46.82442748091603,walk
1604241033.8638809,-0.2335205078125,0.979736328125,-0.4862060546875,-11.648854961832061,-82.16793893129771,51.81679389312977,walk
1604241033.9038808,-0.2552490234375,0.994140625,-0.3941650390625,-10.442748091603054,-106.64885496183206,74.97709923664122,walk
1604241033.9438808,-0.1990966796875,1.250244140625,-0.3692626953125,-9.610687022900763,-133.50381679389312,93.33587786259542,walk
1604241033.9838808,0.1748046875,1.25537109375,-0.2601318359375,-15.404580152671755,-177.3587786259542,110.61068702290076,walk
1604241034.0238807,-0.2506103515625,1.320556640625,0.036376953125,-19.47328244274809,-192.15267175572518,124.17557251908397,walk
1604241034.0638807,-0.4793701171875,1.033447265625,-0.1343994140625,-4.534351145038168,-206.12977099236642,108.38167938931298,walk
1604241034.1038806,-0.0755615234375,1.000244140625,-0.1942138671875,-40.74809160305343,-127.16793893129771,101.36641221374046,walk
1604241034.1438806,0.196044921875,0.7529296875,-0.4014892578125,-34.732824427480914,-111.53435114503817,87.47328244274809,walk
1604241034.1838806,0.229736328125,0.68994140625,-0.3731689453125,-30.68702290076336,-68.17557251908397,62.25954198473283,walk
1604241034.2238805,0.05126953125,0.697998046875,-0.3067626953125,-42.83969465648855,-62.48091603053435,37.74809160305343,walk
1604241034.2638805,-0.0906982421875,0.723388671875,-0.1651611328125,-36.20610687022901,-101.98473282442748,16.64885496183206,walk
1604241034.3038805,-0.2271728515625,0.74609375,-0.2930908203125,-2.4427480916030535,-171.9618320610687,1.1755725190839694,walk
1604241034.3438804,0.12841796875,0.610595703125,-0.2850341796875,35.80916030534351,-248.05343511450383,-6.3816793893129775,walk
1604241034.3838804,0.5615234375,1.024169921875,-0.5628662109375,60.045801526717554,-224.1679389312977,-0.22137404580152673,walk
1604241034.4238803,0.7109375,1.044189453125,-0.7625732421875,50.33587786259542,-154.63358778625954,15.389312977099237,walk
1604241034.4638803,0.55615234375,0.919189453125,-0.4671630859375,15.068702290076336,-60.541984732824424,-2.5419847328244276,walk
1604241034.5038803,0.098388671875,1.14599609375,-0.3580322265625,-11.763358778625955,-47.38931297709924,-33.38931297709924,walk
1604241034.5438802,0.21923828125,1.2587890625,-0.0196533203125,-44.343511450381676,-14.282442748091603,-19.671755725190838,walk
1604241034.5838802,-0.3480224609375,1.02880859375,-0.5611572265625,23.19083969465649,-60.87786259541985,-29.755725190839694,walk
1604241034.6238801,-0.0784912109375,0.815673828125,-0.2530517578125,3.6793893129770994,-117.83969465648855,-4.526717557251908,walk
1604241034.66388,-0.2982177734375,0.834228515625,-0.4959716796875,8.01526717557252,-77.06870229007633,-21.076335877862597,walk
1604241034.70388,-0.1319580078125,0.97412109375,-0.4893798828125,11.801526717557252,-32.87786259541985,-25.755725190839694,walk
1604241034.74388,-0.1722412109375,0.954833984375,-0.3509521484375,5.114503816793893,-64.87786259541984,-10.954198473282442,walk
1604241034.78388,-0.2322998046875,0.868408203125,-0.4766845703125,18.18320610687023,-104.38167938931298,6.6106870229007635,walk
1604241034.82388,0.032958984375,0.913818359375,-0.4754638671875,11.587786259541986,-92.12213740458016,4.152671755725191,walk
1604241034.86388,0.0087890625,0.864990234375,-0.3966064453125,10.595419847328245,-60.786259541984734,-2.4656488549618323,walk
1604241034.90388,-0.1287841796875,0.881591796875,-0.4049072265625,4.931297709923665,-38.06106870229008,-17.49618320610687,walk
1604241034.9438798,-0.1502685546875,0.894775390625,-0.3153076171875,9.427480916030534,-56.29007633587786,-11.763358778625955,walk
1604241034.9838798,-0.0074462890625,0.93408203125,-0.3878173828125,5.3816793893129775,-54.396946564885496,-7.221374045801527,walk
1604241035.0238798,-0.0589599609375,0.90283203125,-0.3624267578125,5.893129770992366,-34.80152671755725,-10.198473282442748,walk
1604241035.0638797,-0.0511474609375,0.908935546875,-0.4124755859375,2.366412213740458,-33.969465648854964,-13.358778625954198,walk
1604241035.1038797,-0.0740966796875,0.95458984375,-0.3599853515625,-1.297709923664122,-24.068702290076335,-4.526717557251908,walk
1604241035.1438797,-0.0118408203125,1.058349609375,-0.3948974609375,-13.16793893129771,-13.19083969465649,5.541984732824427,walk
1604241035.1838796,0.029541015625,1.324951171875,-0.4871826171875,-34.63358778625954,5.8320610687022905,34.94656488549618,walk
1604241035.2238796,0.58154296875,1.38818359375,-0.3040771484375,-75.66412213740458,-6.824427480916031,112.09160305343511,walk
1604241035.2638795,0.44775390625,0.89599609375,-0.0882568359375,-65.95419847328245,53.213740458015266,152.17557251908397,walk
1604241035.3038795,-0.5538330078125,1.29296875,-0.3114013671875,17.3206106870229,-93.30534351145039,126.5114503816794,walk
1604241035.3438795,0.0498046875,1.1728515625,-0.6859130859375,2.7099236641221376,11.702290076335878,131.793893129771,walk
1604241035.3838794,-0.0054931640625,0.96240234375,-0.5225830078125,32.213740458015266,-13.427480916030534,124.79389312977099,walk
1604241035.4238794,-0.1961669921875,0.768310546875,-0.2344970703125,49.94656488549618,52.3587786259542,82.22900763358778,walk
1604241035.4638793,0.11962890625,0.606201171875,-0.1912841796875,50.47328244274809,82.43511450381679,23.65648854961832,walk
1604241035.5038793,-0.0306396484375,0.543701171875,-0.2281494140625,60.33587786259542,103.04580152671755,-34.603053435114504,walk
1604241035.5438793,-0.5079345703125,0.73583984375,-0.3060302734375,48.52671755725191,62.35114503816794,-57.534351145038165,walk
1604241035.5838792,-0.4158935546875,0.755126953125,-0.0616455078125,-7.351145038167939,52.57251908396947,-87.56488549618321,walk
1604241035.6238792,0.569091796875,1.387451171875,0.067138671875,-80.31297709923665,192.0381679389313,-90.44274809160305,walk
1604241035.6638792,1.24462890625,1.214111328125,-0.7215576171875,58.17557251908397,18.106870229007633,36.85496183206107,walk
1604241035.703879,-0.5325927734375,0.931396484375,-0.0980224609375,80.65648854961832,-97.66412213740458,32.06870229007634,walk
1604241035.743879,0.086181640625,1.27783203125,-0.5145263671875,-66.55725190839695,93.99236641221374,-51.961832061068705,walk
1604241035.783879,-0.0047607421875,1.20556640625,-0.1539306640625,-33.465648854961835,49.68702290076336,20.65648854961832,walk
1604241035.823879,-1.1573486328125,0.20947265625,-0.0938720703125,11.053435114503817,-78.42748091603053,-115.21374045801527,walk
1604241035.863879,0.288818359375,1.48193359375,-0.4549560546875,-12.625954198473282,-34.19083969465649,-56.51908396946565,walk
1604241035.903879,0.08203125,0.77197265625,-0.5191650390625,-10.427480916030534,9.625954198473282,-74.30534351145039,walk
1604241035.943879,-0.1944580078125,0.853271484375,-0.4066162109375,-6.961832061068702,19.412213740458014,-78.22137404580153,walk
1604241035.9838789,-0.1253662109375,0.92138671875,-0.3541259765625,-0.22900763358778625,9.022900763358779,-74.8473282442748,walk
1604241036.0238788,-0.1075439453125,0.95263671875,-0.2691650390625,0.19083969465648856,27.34351145038168,-72.17557251908397,walk
1604241036.0638788,-0.0252685546875,0.89501953125,-0.2723388671875,-1.8854961832061068,37.12977099236641,-70.6793893129771,walk
1604241036.1038787,-0.0787353515625,0.8798828125,-0.3250732421875,-6.961832061068702,39.25954198473283,-59.396946564885496,walk
1604241036.1438787,-0.0953369140625,0.874755859375,-0.3243408203125,1.366412213740458,23.931297709923665,-50.06870229007634,walk
1604241036.1838787,0.04150390625,1.027099609375,-0.3492431640625,-8.641221374045802,9.01526717557252,-35.80916030534351,walk
1604241036.2238786,0.0224609375,1.03271484375,-0.4422607421875,-29.50381679389313,5.572519083969466,6.702290076335878,walk
1604241036.2638786,0.334228515625,1.102294921875,-0.2821044921875,-33.221374045801525,22.14503816793893,25.17557251908397,walk
1604241036.3038785,0.143310546875,1.22216796875,-0.5782470703125,-48.603053435114504,8.83206106870229,62.6412213740458,walk
1604241036.3438785,0.445068359375,1.13232421875,-0.0076904296875,-48.16030534351145,-1.2213740458015268,137.50381679389312,walk
1604241036.3838785,-0.4954833984375,1.106201171875,-0.5284423828125,0.44274809160305345,23.259541984732824,121.02290076335878,walk
1604241036.4238784,-0.2034912109375,1.32080078125,-0.2664794921875,25.03053435114504,-33.70992366412214,116.93893129770993,walk
1604241036.4638784,-0.0931396484375,0.845703125,-0.3629150390625,53.900763358778626,-8.763358778625955,94.21374045801527,walk
1604241036.5038784,-0.0167236328125,0.919677734375,-0.2462158203125,50.2442748091603,37.908396946564885,60.83206106870229,walk
1604241036.5438783,-0.0523681640625,0.8046875,-0.1788330078125,58.778625954198475,87.42748091603053,37.62595419847328,walk
1604241036.5838783,-0.1744384765625,0.710693359375,-0.1170654296875,67.18320610687023,81.29007633587786,-1.8091603053435115,walk
1604241036.6238782,-0.5438232421875,0.70361328125,-0.1409912109375,52.2442748091603,13.801526717557252,-27.732824427480917,walk
1604241036.6638782,-0.3409423828125,0.7724609375,0.196533203125,-1.0687022900763359,15.938931297709924,-58.20610687022901,walk
1604241036.7038782,0.54931640625,1.119140625,-0.1883544921875,-18.83969465648855,-18.061068702290076,-41.770992366412216,walk
1604241036.7438781,1.016357421875,1.363525390625,-0.6080322265625,19.450381679389313,-15.34351145038168,18.068702290076335,walk
1604241036.783878,0.07421875,0.888671875,-0.3360595703125,40.87786259541985,-27.870229007633586,28.580152671755727,walk
1604241036.823878,-0.7362060546875,0.975830078125,0.2529296875,-11.572519083969466,-31.30534351145038,-39.282442748091604,walk
1604241036.863878,1.25634765625,0.83740234375,-1.2232666015625,62.38931297709924,-19.53435114503817,-9.236641221374045,walk
1604241036.903878,-0.8848876953125,0.77685546875,0.1005859375,-19.404580152671755,23.85496183206107,-66.79389312977099,walk
1604241036.943878,-0.0115966796875,1.015380859375,-0.5225830078125,10.435114503816793,5.038167938931298,-64.1145038167939,walk
1604241036.983878,-0.4830322265625,0.774169921875,-0.3489990234375,13.80916030534351,-55.37404580152672,-69.00763358778626,walk
1604241037.0238779,-0.1246337890625,1.000732421875,-0.3367919921875,14.67175572519084,-57.152671755725194,-61.88549618320611,walk
1604241037.0638778,-0.1566162109375,0.799560546875,-0.4329833984375,16.564885496183205,-70.22137404580153,-48.29007633587786,walk
1604241037.1038778,-0.0804443359375,0.804931640625,-0.3782958984375,22.72519083969466,-61.732824427480914,-39.66412213740458,walk
1604241037.1438777,-0.2000732421875,0.8955078125,-0.3106689453125,21.81679389312977,-62.19847328244275,-30.870229007633586,walk
1604241037.1838777,-0.1531982421875,0.922119140625,-0.3177490234375,23.34351145038168,-77.50381679389314,-25.16030534351145,walk
1604241037.2238777,-0.1776123046875,0.9755859375,-0.4078369140625,16.30534351145038,-57.725190839694655,-19.137404580152673,walk
1604241037.2638776,-0.1468505859375,0.892822265625,-0.4591064453125,15.854961832061068,-87.38167938931298,-7.9465648854961835,walk
1604241037.3038776,0.062744140625,0.9697265625,-0.4195556640625,11.17557251908397,-68.82442748091603,14.32824427480916,walk
1604241037.3438776,0.132080078125,1.0263671875,-0.4766845703125,-1.6488549618320612,-75.83206106870229,50.42748091603053,walk
1604241037.3838775,0.623779296875,1.42138671875,-0.3189697265625,-30.923664122137403,-63.16030534351145,103.77862595419847,walk
1604241037.4238775,0.3720703125,1.322998046875,-0.1109619140625,-42.0763358778626,-54.083969465648856,177.0916030534351,walk
1604241037.4638774,-0.5689697265625,1.26513671875,-0.0694580078125,-2.969465648854962,-113.40458015267176,165.8091603053435,walk
1604241037.5038774,-0.4605712890625,1.12744140625,-0.5169677734375,40.86259541984733,-136.58778625954199,133.08396946564886,walk
1604241037.5438774,-0.0567626953125,0.977783203125,-0.7010498046875,36.80152671755725,-47.76335877862596,146.59541984732823,walk
