accel_x,accel_y,accel_z,gyro_x,gyro_y,gyro_z,label
1604241077.905925,-0.0596923828125,0.97021484375,-0.2086181640625,0.1297709923664122,-2.236641221374046,1.9389312977099236,stand
1604241077.945925,-0.0472412109375,0.974609375,-0.2166748046875,0.9007633587786259,-1.7938931297709924,-0.8015267175572519,stand
1604241077.985925,-0.0428466796875,0.978759765625,-0.2152099609375,0.5267175572519084,-0.8931297709923665,-0.33587786259541985,stand
1604241078.025925,-0.0540771484375,0.97216796875,-0.2171630859375,0.20610687022900764,-1.9465648854961832,0.5877862595419847,stand
1604241078.065925,-0.0506591796875,0.9794921875,-0.2098388671875,1.1908396946564885,-0.5801526717557252,0.04580152671755725,stand
1604241078.1059248,-0.0521240234375,0.9775390625,-0.2042236328125,0.5954198473282443,-2.099236641221374,0.2366412213740458,stand
1604241078.1459248,-0.0523681640625,0.969482421875,-0.2083740234375,-0.10687022900763359,-0.9618320610687023,0.31297709923664124,stand
1604241078.1859248,-0.0543212890625,0.97265625,-0.2100830078125,1.1908396946564885,-2.7099236641221376,0.2366412213740458,stand
1604241078.2259247,-0.0313720703125,0.96923828125,-0.2003173828125,1.251908396946565,-1.282442748091603,-0.183206106870229,stand
1604241078.2659247,-0.0501708984375,0.972900390625,-0.2005615234375,-0.007633587786259542,-2.404580152671756,0.4580152671755725,stand
1604241078.3059247,-0.0601806640625,0.977783203125,-0.2139892578125,0.9083969465648855,-0.45038167938931295,-0.5801526717557252,stand
1604241078.3459246,-0.0501708984375,0.971435546875,-0.2271728515625,0.7709923664122137,-1.9312977099236641,-0.25190839694656486,stand
1604241078.3859246,-0.0699462890625,0.970947265625,-0.1934814453125,0.5725190839694656,-1.450381679389313,-0.3816793893129771,stand
1604241078.4259245,-0.0765380859375,0.97314453125,-0.2012939453125,1.3282442748091603,-0.17557251908396945,-1.0763358778625953,stand
1604241078.4659245,-0.0467529296875,0.97607421875,-0.2044677734375,1.0381679389312977,-1.8854961832061068,-0.2748091603053435,stand
1604241078.5059245,-0.0489501953125,0.96044921875,-0.1927490234375,0.46564885496183206,-0.5190839694656488,0.03816793893129771,stand
1604241078.5459244,-0.0435791015625,0.981689453125,-0.2125244140625,1.4885496183206106,-2.595419847328244,-0.17557251908396945,stand
1604241078.5859244,-0.0526123046875,0.973388671875,-0.2100830078125,1.450381679389313,-0.4580152671755725,-0.07633587786259542,stand
1604241078.6259243,-0.0692138671875,0.97509765625,-0.2098388671875,0.7251908396946565,-1.6717557251908397,0.6870229007633588,stand
1604241078.6659243,-0.0584716796875,0.9736328125,-0.2127685546875,0.5114503816793893,-2.053435114503817,-0.015267175572519083,stand
1604241078.7059243,-0.0506591796875,0.980224609375,-0.2030029296875,1.0,0.6106870229007634,0.16793893129770993,stand
1604241078.7459242,-0.0662841796875,0.97216796875,-0.2081298828125,1.1374045801526718,-1.6946564885496183,0.45038167938931295,stand
1604241078.7859242,-0.0479736328125,0.975830078125,-0.2086181640625,1.4122137404580153,-1.717557251908397,0.4732824427480916,stand
1604241078.8259242,-0.0565185546875,0.972900390625,-0.1839599609375,0.45038167938931295,-0.5114503816793893,0.5801526717557252,stand
1604241078.8659241,-0.0513916015625,0.97119140625,-0.2149658203125,1.1908396946564885,-1.1374045801526718,-0.21374045801526717,stand
1604241078.905924,-0.0633544921875,0.966064453125,-0.2093505859375,1.5267175572519085,-0.42748091603053434,-0.35877862595419846,stand
1604241078.945924,-0.0660400390625,0.97802734375,-0.2271728515625,0.35877862595419846,-1.16793893129771,-0.33587786259541985,stand
1604241078.985924,-0.0323486328125,0.967041015625,-0.2005615234375,0.8473282442748091,-0.9007633587786259,-0.5343511450381679,stand
1604241079.025924,-0.0567626953125,0.96630859375,-0.2010498046875,2.0381679389312977,-0.6564885496183206,-0.2366412213740458,stand
1604241079.065924,-0.0548095703125,0.960693359375,-0.2066650390625,0.5725190839694656,-1.5954198473282444,0.03816793893129771,stand
1604241079.105924,-0.0538330078125,0.97607421875,-0.2073974609375,0.8091603053435115,-0.7404580152671756,-0.45038167938931295,stand
1604241079.1459239,-0.0567626953125,0.980712890625,-0.2052001953125,0.13740458015267176,-0.030534351145038167,-0.32061068702290074,stand
1604241079.1859238,-0.0513916015625,0.97412109375,-0.2293701171875,1.0076335877862594,-2.0839694656488548,-0.26717557251908397,stand
1604241079.2259238,-0.0540771484375,0.978759765625,-0.2269287109375,0.16793893129770993,1.3206106870229009,0.29770992366412213,stand
1604241079.2659237,-0.0633544921875,0.96142578125,-0.2052001953125,0.6946564885496184,-0.8244274809160306,-0.21374045801526717,stand
1604241079.3059237,-0.0516357421875,0.9716796875,-0.1915283203125,-0.25190839694656486,-1.2213740458015268,-0.15267175572519084,stand
1604241079.3459237,-0.0579833984375,0.968994140625,-0.2122802734375,1.7786259541984732,-1.9083969465648856,-0.7862595419847328,stand
1604241079.3859236,-0.0513916015625,0.973388671875,-0.2120361328125,0.2595419847328244,-1.6946564885496183,0.061068702290076333,stand
1604241079.4259236,-0.0506591796875,0.97119140625,-0.1925048828125,2.3053435114503817,-1.8473282442748091,-0.44274809160305345,stand
1604241079.4659235,-0.0567626953125,0.9697265625,-0.2237548828125,0.7786259541984732,-1.6259541984732824,-0.3435114503816794,stand
1604241079.5059235,-0.0596923828125,0.9765625,-0.2169189453125,0.5572519083969466,-1.1526717557251909,0.07633587786259542,stand
1604241079.5459235,-0.0565185546875,0.974853515625,-0.2135009765625,0.5038167938931297,-1.450381679389313,0.22137404580152673,stand
1604241079.5859234,-0.0533447265625,0.979736328125,-0.2025146484375,1.0076335877862594,-0.48854961832061067,0.0,stand
1604241079.6259234,-0.0577392578125,0.977783203125,-0.2047119140625,0.6793893129770993,-3.801526717557252,0.40458015267175573,stand
1604241079.6659234,-0.0579833984375,0.972900390625,-0.2039794921875,0.7938931297709924,-2.8091603053435112,0.19083969465648856,stand
1604241079.7059233,-0.0572509765625,0.9716796875,-0.2095947265625,0.6870229007633588,-2.7251908396946565,0.2595419847328244,stand
1604241079.7459233,-0.0501708984375,0.9716796875,-0.2132568359375,0.7862595419847328,-1.9694656488549618,0.46564885496183206,stand
1604241079.7859232,-0.0574951171875,0.9736328125,-0.1988525390625,0.916030534351145,-3.404580152671756,0.2900763358778626,stand
1604241079.8259232,-0.0469970703125,0.97802734375,-0.2100830078125,1.0,-1.1526717557251909,-0.29770992366412213,stand
1604241079.8659232,-0.0545654296875,0.968994140625,-0.2076416015625,1.297709923664122,-1.7938931297709924,-0.030534351145038167,stand
1604241079.9059231,-0.0545654296875,0.970458984375,-0.2047119140625,0.42748091603053434,-1.6641221374045803,-0.022900763358778626,stand
1604241079.945923,-0.0570068359375,0.981689453125,-0.2069091796875,2.312977099236641,-2.2061068702290076,-0.8396946564885496,stand
1604241079.985923,-0.0423583984375,0.977783203125,-0.2049560546875,1.9083969465648856,-1.1068702290076335,-0.5190839694656488,stand
1604241080.025923,-0.0474853515625,0.978759765625,-0.2139892578125,0.9618320610687023,-1.6412213740458015,-0.40458015267175573,stand
1604241080.065923,-0.0362548828125,0.9560546875,-0.2191162109375,0.7709923664122137,-1.5114503816793894,-0.5343511450381679,stand
1604241080.105923,-0.0416259765625,0.976806640625,-0.2320556640625,0.5038167938931297,-0.6793893129770993,-0.9847328244274809,stand
1604241080.145923,-0.0487060546875,0.978271484375,-0.2183837890625,-0.007633587786259542,1.3435114503816794,-1.450381679389313,stand
1604241080.1859229,-0.0511474609375,0.97802734375,-0.2115478515625,1.1984732824427482,-1.6106870229007633,-1.1297709923664123,stand
1604241080.2259228,-0.0621337890625,0.97412109375,-0.2091064453125,-0.3511450381679389,-0.44274809160305345,-0.40458015267175573,stand
1604241080.2659228,-0.0538330078125,0.970458984375,-0.2298583984375,0.816793893129771,1.099236641221374,-1.099236641221374,stand
1604241080.3059227,-0.0513916015625,0.971435546875,-0.1968994140625,1.1450381679389312,-1.4122137404580153,-1.16793893129771,stand
1604241080.3459227,-0.0509033203125,0.971435546875,-0.2164306640625,0.4732824427480916,-0.37404580152671757,0.0,stand
1604241080.3859227,-0.0570068359375,0.97412109375,-0.2022705078125,0.8396946564885496,-2.519083969465649,-0.09923664122137404,stand
1604241080.4259226,-0.0753173828125,0.970458984375,-0.2059326171875,1.213740458015267,-2.7099236641221376,-1.7786259541984732,stand
1604241080.4659226,-0.0609130859375,0.97265625,-0.2198486328125,-0.6030534351145038,1.8549618320610688,-1.7099236641221374,stand
1604241080.5059226,-0.0606689453125,0.967041015625,-0.2034912109375,1.0610687022900764,0.03816793893129771,-1.4274809160305344,stand
1604241080.5459225,-0.0633544921875,0.97412109375,-0.2034912109375,1.3053435114503817,-3.3587786259541983,-0.1450381679389313,stand
1604241080.5859225,-0.0633544921875,0.97509765625,-0.2039794921875,0.030534351145038167,-2.49618320610687,0.25190839694656486,stand
1604241080.6259224,-0.0667724609375,0.975830078125,-0.2205810546875,0.48091603053435117,-0.20610687022900764,-0.24427480916030533,stand
1604241080.6659224,-0.0670166015625,0.9794921875,-0.2034912109375,0.2748091603053435,-1.6641221374045803,-0.35877862595419846,stand
1604241080.7059224,-0.0604248046875,0.973388671875,-0.2130126953125,1.282442748091603,-0.9618320610687023,-0.9847328244274809,stand
1604241080.7459223,-0.0548095703125,0.975341796875,-0.2032470703125,-0.16030534351145037,-2.854961832061069,0.19083969465648856,stand
1604241080.7859223,-0.0548095703125,0.974365234375,-0.2010498046875,0.2748091603053435,-1.6793893129770991,0.48091603053435117,stand
1604241080.8259223,-0.0614013671875,0.972412109375,-0.2066650390625,0.7099236641221374,-2.6946564885496183,1.900763358778626,stand
1604241080.8659222,-0.0474853515625,0.9658203125,-0.2091064453125,-0.4198473282442748,-2.312977099236641,0.2366412213740458,stand
1604241080.9059222,-0.0626220703125,0.96728515625,-0.2174072265625,1.8015267175572518,-0.2595419847328244,-0.5648854961832062,stand
1604241080.9459221,-0.0670166015625,0.975830078125,-0.1917724609375,-0.015267175572519083,-1.0,-0.6106870229007634,stand
1604241080.985922,-0.0540771484375,0.96875,-0.1937255859375,1.0763358778625953,-1.4580152671755726,-1.5572519083969465,stand
1604241081.025922,-0.0623779296875,0.96875,-0.2122802734375,1.0610687022900764,0.7862595419847328,-1.83206106870229,stand
1604241081.065922,-0.0643310546875,0.9716796875,-0.2059326171875,-0.24427480916030533,1.8778625954198473,-0.7404580152671756,stand
1604241081.105922,-0.0745849609375,0.9775390625,-0.2073974609375,0.9770992366412213,0.2824427480916031,-0.6335877862595419,stand
1604241081.145922,-0.0670166015625,0.98193359375,-0.2105712890625,1.083969465648855,-0.17557251908396945,-1.1603053435114503,stand
1604241081.185922,-0.0755615234375,0.971923828125,-0.2010498046875,0.9312977099236641,-0.1984732824427481,-1.1221374045801527,stand
1604241081.2259219,-0.0782470703125,0.984375,-0.2083740234375,1.465648854961832,-0.5267175572519084,-2.1526717557251906,stand
1604241081.2659218,-0.0765380859375,0.96923828125,-0.2095947265625,0.2748091603053435,0.5114503816793893,-1.4580152671755726,stand
1604241081.3059218,-0.0948486328125,0.97998046875,-0.1951904296875,1.2290076335877862,-1.1755725190839694,-1.2061068702290076,stand
1604241081.3459218,-0.0799560546875,0.975341796875,-0.2169189453125,1.8473282442748091,-2.0916030534351147,-1.8702290076335877,stand
1604241081.3859217,-0.0748291015625,0.974609375,-0.2030029296875,0.9389312977099237,-0.549618320610687,-1.5267175572519085,stand
1604241081.4259217,-0.0882568359375,0.974853515625,-0.2061767578125,0.8473282442748091,-1.015267175572519,-1.6030534351145038,stand
1604241081.4659216,-0.0848388671875,0.96826171875,-0.2108154296875,1.4885496183206106,-2.9618320610687023,-1.6030534351145038,stand
1604241081.5059216,-0.0762939453125,0.9833984375,-0.1951904296875,1.2900763358778626,-1.1908396946564885,-0.8396946564885496,stand
1604241081.5459216,-0.0841064453125,0.967529296875,-0.2095947265625,0.48091603053435117,-4.473282442748092,-1.0534351145038168,stand
1604241081.5859215,-0.0780029296875,0.964599609375,-0.2095947265625,0.48091603053435117,-0.916030534351145,-1.0305343511450382,stand
1604241081.6259215,-0.0687255859375,0.980224609375,-0.2010498046875,0.6870229007633588,-2.969465648854962,-0.5343511450381679,stand
1604241081.6659214,-0.0936279296875,0.98291015625,-0.2120361328125,0.5954198473282443,-1.6946564885496183,0.5038167938931297,stand
1604241081.7059214,-0.0841064453125,0.966796875,-0.2095947265625,0.5877862595419847,-3.404580152671756,0.4122137404580153,stand
1604241081.7459214,-0.0631103515625,0.96240234375,-0.2166748046875,1.916030534351145,-1.2061068702290076,-0.48854961832061067,stand
1604241081.7859213,-0.0806884765625,0.968505859375,-0.2127685546875,1.8396946564885497,-3.7099236641221376,-0.13740458015267176,stand
1604241081.8259213,-0.1041259765625,0.983642578125,-0.2110595703125,0.007633587786259542,-2.5572519083969465,-0.17557251908396945,stand
1604241081.8659213,-0.0697021484375,0.976806640625,-0.1951904296875,1.6030534351145038,-2.3206106870229006,-0.2366412213740458,stand
1604241081.9059212,-0.0799560546875,0.9736328125,-0.2056884765625,0.4580152671755725,-5.129770992366412,0.9847328244274809,stand
1604241081.9459212,-0.0743408203125,0.980224609375,-0.2022705078125,1.297709923664122,-2.763358778625954,1.0534351145038168,stand
1604241081.9859211,-0.0909423828125,0.9755859375,-0.2137451171875,0.5038167938931297,-1.2442748091603053,0.08396946564885496,stand
1604241082.025921,-0.0775146484375,0.9765625,-0.1942138671875,0.4351145038167939,-3.2595419847328246,0.8396946564885496,stand
1604241082.065921,-0.0802001953125,0.9697265625,-0.1944580078125,1.2213740458015268,-2.381679389312977,0.4732824427480916,stand
1604241082.105921,-0.0743408203125,0.964111328125,-0.2193603515625,0.5038167938931297,-2.381679389312977,0.015267175572519083,stand
1604241082.145921,-0.0645751953125,0.9716796875,-0.1937255859375,0.5572519083969466,-2.7786259541984735,0.6793893129770993,stand
1604241082.185921,-0.0784912109375,0.96630859375,-0.1995849609375,0.8320610687022901,-1.0916030534351144,-0.12213740458015267,stand
1604241082.225921,-0.0799560546875,0.97607421875,-0.1978759765625,2.2061068702290076,-0.6641221374045801,-0.6030534351145038,stand
1604241082.2659209,-0.0677490234375,0.97119140625,-0.2095947265625,0.7557251908396947,-1.6946564885496183,-0.3969465648854962,stand
1604241082.3059208,-0.0784912109375,0.9765625,-0.2015380859375,1.099236641221374,-0.366412213740458,-0.26717557251908397,stand
1604241082.3459208,-0.0865478515625,0.974609375,-0.1854248046875,0.8702290076335878,1.2671755725190839,-1.1526717557251909,stand
1604241082.3859208,-0.0653076171875,0.972900390625,-0.2012939453125,0.7175572519083969,-1.1145038167938932,-0.7938931297709924,stand
1604241082.4259207,-0.0823974609375,0.974365234375,-0.2003173828125,0.8931297709923665,-0.3511450381679389,-0.6030534351145038,stand
1604241082.4659207,-0.0792236328125,0.972412109375,-0.1900634765625,1.0916030534351144,-1.1068702290076335,0.3435114503816794,stand
1604241082.5059206,-0.0875244140625,0.953857421875,-0.1910400390625,1.1145038167938932,0.46564885496183206,0.015267175572519083,stand
1604241082.5459206,-0.0819091796875,0.9833984375,-0.2181396484375,0.9618320610687023,-0.13740458015267176,-0.24427480916030533,stand
1604241082.5859206,-0.0841064453125,0.97021484375,-0.2088623046875,0.7480916030534351,-1.0534351145038168,-0.2824427480916031,stand
1604241082.6259205,-0.0809326171875,0.9697265625,-0.2008056640625,1.4274809160305344,-1.213740458015267,-0.33587786259541985,stand
1604241082.6659205,-0.0823974609375,0.972412109375,-0.2091064453125,0.9465648854961832,-0.7786259541984732,0.37404580152671757,stand
1604241082.7059205,-0.0845947265625,0.9716796875,-0.1915283203125,0.8778625954198473,-0.20610687022900764,0.5343511450381679,stand
1604241082.7459204,-0.0804443359375,0.973388671875,-0.1876220703125,1.8549618320610688,-1.3435114503816794,0.12213740458015267,stand
1604241082.7859204,-0.0823974609375,0.974853515625,-0.2076416015625,1.0763358778625953,-0.8625954198473282,0.44274809160305345,stand
1604241082.8259203,-0.0780029296875,0.969482421875,-0.2003173828125,0.2900763358778626,-0.5954198473282443,0.5190839694656488,stand
1604241082.8659203,-0.0836181640625,0.968505859375,-0.1920166015625,2.0763358778625953,-2.0839694656488548,0.33587786259541985,stand
1604241082.9059203,-0.0775146484375,0.974365234375,-0.2139892578125,1.099236641221374,0.16793893129770993,0.12213740458015267,stand
1604241082.9459202,-0.0770263671875,0.971435546875,-0.2022705078125,0.549618320610687,-0.29770992366412213,0.6030534351145038,stand
1604241082.9859202,-0.0804443359375,0.97314453125,-0.2105712890625,1.4122137404580153,-1.6412213740458015,0.08396946564885496,stand
1604241083.0259202,-0.0592041015625,0.97509765625,-0.2008056640625,1.633587786259542,0.3435114503816794,0.6259541984732825,stand
1604241083.06592,-0.0728759765625,0.971923828125,-0.2005615234375,0.4961832061068702,-1.4122137404580153,0.48091603053435117,stand
1604241083.10592,-0.0821533203125,0.974609375,-0.2174072265625,0.5572519083969466,0.33587786259541985,0.6717557251908397,stand
1604241083.14592,-0.0726318359375,0.9814453125,-0.2276611328125,0.8778625954198473,-1.1145038167938932,0.4198473282442748,stand
1604241083.18592,-0.0721435546875,0.964111328125,-0.2020263671875,1.4885496183206106,-1.5877862595419847,0.06870229007633588,stand
1604241083.22592,-0.0906982421875,0.976806640625,-0.2132568359375,1.7328244274809161,-0.7404580152671756,0.45038167938931295,stand
1604241083.26592,-0.0745849609375,0.976806640625,-0.2027587890625,0.6030534351145038,-1.1603053435114503,0.6412213740458015,stand
1604241083.30592,-0.0711669921875,0.9736328125,-0.2135009765625,2.366412213740458,-0.26717557251908397,0.3282442748091603,stand
1604241083.3459198,-0.0731201171875,0.977783203125,-0.2064208984375,1.4198473282442747,-1.9770992366412214,0.8091603053435115,stand
1604241083.3859198,-0.0706787109375,0.968505859375,-0.1915283203125,0.9465648854961832,-0.0916030534351145,0.1984732824427481,stand
1604241083.4259198,-0.0631103515625,0.980224609375,-0.2205810546875,1.1755725190839694,-0.8854961832061069,0.6259541984732825,stand
1604241083.4659197,-0.0645751953125,0.95703125,-0.2076416015625,0.6335877862595419,-0.22900763358778625,0.6259541984732825,stand
1604241083.5059197,-0.0738525390625,0.959228515625,-0.2095947265625,2.1603053435114505,-1.5038167938931297,0.3435114503816794,stand
1604241083.5459197,-0.0797119140625,0.973876953125,-0.2059326171875,1.7099236641221374,-0.03816793893129771,0.06870229007633588,stand
1604241083.5859196,-0.0643310546875,0.9658203125,-0.1976318359375,2.183206106870229,-1.1603053435114503,0.19083969465648856,stand
1604241083.6259196,-0.0697021484375,0.972412109375,-0.2332763671875,0.7099236641221374,-2.015267175572519,1.1603053435114503,stand
1604241083.6659195,-0.0775146484375,0.9736328125,-0.2015380859375,2.0076335877862594,-0.8473282442748091,0.0916030534351145,stand
1604241083.7059195,-0.0682373046875,0.974853515625,-0.2169189453125,0.2595419847328244,-1.1145038167938932,0.549618320610687,stand
1604241083.7459195,-0.0726318359375,0.9716796875,-0.1971435546875,1.8396946564885497,-0.35877862595419846,0.007633587786259542,stand
1604241083.7859194,-0.0665283203125,0.9658203125,-0.2108154296875,0.6412213740458015,-1.5038167938931297,1.0687022900763359,stand
1604241083.8259194,-0.0745849609375,0.971923828125,-0.2022705078125,1.0305343511450382,-1.4809160305343512,1.2366412213740459,stand
1604241083.8659194,-0.0626220703125,0.9697265625,-0.2113037109375,0.9694656488549618,-0.183206106870229,1.9236641221374047,stand
1604241083.9059193,-0.0718994140625,0.9765625,-0.1990966796875,0.9541984732824428,-1.9083969465648856,0.366412213740458,stand
1604241083.9459193,-0.0701904296875,0.964599609375,-0.2142333984375,0.549618320610687,-0.33587786259541985,0.5877862595419847,stand
1604241083.9859192,-0.0682373046875,0.97607421875,-0.2174072265625,1.5648854961832062,-2.2290076335877864,1.916030534351145,stand
1604241084.0259192,-0.0594482421875,0.968994140625,-0.2061767578125,0.9007633587786259,-1.9541984732824427,1.0305343511450382,stand
1604241084.0659192,-0.0728759765625,0.980224609375,-0.2164306640625,1.5572519083969465,-1.16793893129771,0.4351145038167939,stand
1604241084.1059191,-0.0606689453125,0.9736328125,-0.2120361328125,0.9007633587786259,-2.3206106870229006,0.732824427480916,stand
1604241084.145919,-0.0677490234375,0.9677734375,-0.2047119140625,2.068702290076336,-0.8625954198473282,0.48854961832061067,stand
1604241084.185919,-0.0631103515625,0.9755859375,-0.2232666015625,1.5114503816793894,-2.885496183206107,0.648854961832061,stand
1604241084.225919,-0.0667724609375,0.974365234375,-0.2088623046875,1.1450381679389312,-0.816793893129771,0.25190839694656486,stand
1604241084.265919,-0.0477294921875,0.973876953125,-0.2078857421875,0.9007633587786259,-3.7557251908396947,0.7175572519083969,stand
1604241084.305919,-0.0545654296875,0.960205078125,-0.2052001953125,0.9083969465648855,0.6106870229007634,0.5648854961832062,stand
1604241084.345919,-0.0604248046875,0.970703125,-0.2239990234375,0.4580152671755725,-2.2061068702290076,1.2595419847328244,stand
1604241084.3859189,-0.0557861328125,0.97265625,-0.2335205078125,0.2900763358778626,0.3053435114503817,0.42748091603053434,stand
1604241084.4259188,-0.0826416015625,0.980224609375,-0.2066650390625,0.7480916030534351,-1.786259541984733,0.3969465648854962,stand
1604241084.4659188,-0.0489501953125,0.96923828125,-0.2008056640625,0.04580152671755725,-2.50381679389313,0.03816793893129771,stand
1604241084.5059187,-0.0638427734375,0.96142578125,-0.2088623046875,1.4427480916030535,-1.3893129770992367,0.4961832061068702,stand
1604241084.5459187,-0.0494384765625,0.968017578125,-0.2154541015625,0.9007633587786259,-1.8702290076335877,1.0076335877862594,stand
1604241084.5859187,-0.0557861328125,0.9775390625,-0.2071533203125,0.549618320610687,-1.1908396946564885,1.3587786259541985,stand
1604241084.6259186,-0.0645751953125,0.97119140625,-0.2276611328125,1.4809160305343512,-1.0076335877862594,-0.08396946564885496,stand
1604241084.6659186,-0.0621337890625,0.974365234375,-0.2071533203125,0.6946564885496184,0.11450381679389313,0.11450381679389313,stand
1604241084.7059186,-0.0623779296875,0.966552734375,-0.2135009765625,0.5038167938931297,-0.6106870229007634,0.44274809160305345,stand
1604241084.7459185,-0.0770263671875,0.97216796875,-0.2205810546875,1.3282442748091603,-0.5801526717557252,0.04580152671755725,stand
1604241084.7859185,-0.0777587890625,0.975341796875,-0.2098388671875,0.2748091603053435,0.648854961832061,-0.6183206106870229,stand
1604241084.8259184,-0.0570068359375,0.966552734375,-0.2091064453125,0.5877862595419847,-0.9007633587786259,-0.366412213740458,stand
1604241084.8659184,-0.0621337890625,0.980712890625,-0.2103271484375,0.5190839694656488,0.09923664122137404,-0.183206106870229,stand
1604241084.9059184,-0.0526123046875,0.976806640625,-0.2073974609375,0.7404580152671756,-0.4122137404580153,0.32061068702290074,stand
1604241084.9459183,-0.0650634765625,0.97412109375,-0.2098388671875,1.0076335877862594,-0.07633587786259542,0.8091603053435115,stand
1604241084.9859183,-0.0623779296875,0.9697265625,-0.1981201171875,2.480916030534351,-1.381679389312977,0.3053435114503817,stand
1604241085.0259182,-0.0738525390625,0.976318359375,-0.2318115234375,0.8473282442748091,-1.3053435114503817,0.6946564885496184,stand
1604241085.0659182,-0.0465087890625,0.970458984375,-0.2081298828125,1.5572519083969465,-0.9007633587786259,0.6335877862595419,stand
1604241085.1059182,-0.0775146484375,0.97265625,-0.2396240234375,0.8625954198473282,-1.618320610687023,1.534351145038168,stand
1604241085.1459181,-0.0528564453125,0.970458984375,-0.2078857421875,1.366412213740458,-1.5419847328244274,0.5419847328244275,stand
1604241085.185918,-0.0445556640625,0.982177734375,-0.2332763671875,1.0381679389312977,-1.0,1.1908396946564885,stand
1604241085.225918,-0.0552978515625,0.982421875,-0.2227783203125,0.4351145038167939,-0.5343511450381679,0.9465648854961832,stand
1604241085.265918,-0.0457763671875,0.972900390625,-0.2093505859375,1.3358778625954197,-0.11450381679389313,1.4427480916030535,stand
1604241085.305918,-0.0438232421875,0.96826171875,-0.2254638671875,0.9923664122137404,-2.099236641221374,1.7557251908396947,stand
1604241085.345918,-0.0555419921875,0.969970703125,-0.1937255859375,0.9236641221374046,-0.5572519083969466,1.1297709923664123,stand
1604241085.385918,-0.0565185546875,0.976318359375,-0.2059326171875,0.8473282442748091,-1.816793893129771,1.3511450381679388,stand
1604241085.4259179,-0.0479736328125,0.976318359375,-0.2144775390625,1.465648854961832,-0.6106870229007634,0.4122137404580153,stand
1604241085.4659178,-0.0467529296875,0.97119140625,-0.2100830078125,0.07633587786259542,-1.450381679389313,0.9618320610687023,stand
1604241085.5059178,-0.0494384765625,0.978759765625,-0.2105712890625,1.5038167938931297,-0.6564885496183206,0.8549618320610687,stand
1604241085.5459177,-0.0509033203125,0.9755859375,-0.1978759765625,1.3053435114503817,-1.0610687022900764,1.465648854961832,stand
1604241085.5859177,-0.0614013671875,0.97802734375,-0.2196044921875,0.10687022900763359,-1.786259541984733,0.183206106870229,stand
1604241085.6259177,-0.0435791015625,0.976806640625,-0.2039794921875,2.381679389312977,0.10687022900763359,0.4198473282442748,stand
1604241085.6659176,-0.0352783203125,0.971923828125,-0.2286376953125,1.1450381679389312,-1.7404580152671756,0.7175572519083969,stand
1604241085.7059176,-0.0433349609375,0.997314453125,-0.2342529296875,-0.29770992366412213,-1.3206106870229009,2.312977099236641,stand
1604241085.7459176,-0.0435791015625,0.97314453125,-0.2105712890625,1.3511450381679388,-2.198473282442748,0.7175572519083969,stand
1604241085.7859175,-0.0428466796875,0.9755859375,-0.2220458984375,0.08396946564885496,-0.6335877862595419,0.32061068702290074,stand
1604241085.8259175,-0.0391845703125,0.983154296875,-0.2257080078125,1.1145038167938932,0.2748091603053435,-0.6793893129770993,stand
1604241085.8659174,-0.0426025390625,0.971435546875,-0.2181396484375,1.16793893129771,0.3511450381679389,0.35877862595419846,stand
1604241085.9059174,-0.0418701171875,0.974365234375,-0.2093505859375,0.5725190839694656,-1.2442748091603053,0.8931297709923665,stand
1604241085.9459174,-0.0445556640625,0.975830078125,-0.2308349609375,2.030534351145038,-0.732824427480916,0.26717557251908397,stand
1604241085.9859173,-0.0421142578125,0.971923828125,-0.2078857421875,0.48091603053435117,-0.21374045801526717,0.03816793893129771,stand
1604241086.0259173,-0.0418701171875,0.973876953125,-0.2193603515625,0.4732824427480916,-0.8396946564885496,-0.015267175572519083,stand
1604241086.0659173,-0.0423583984375,0.9716796875,-0.1934814453125,1.618320610687023,0.33587786259541985,-0.31297709923664124,stand
1604241086.1059172,-0.0426025390625,0.975341796875,-0.2288818359375,1.8625954198473282,-2.267175572519084,1.4045801526717556,stand
1604241086.1459172,-0.0357666015625,0.983642578125,-0.2186279296875,0.1297709923664122,-1.4885496183206106,0.2824427480916031,stand
1604241086.1859171,-0.0438232421875,0.965576171875,-0.2154541015625,1.1984732824427482,-1.916030534351145,-0.5267175572519084,stand
1604241086.225917,-0.0435791015625,0.968017578125,-0.2178955078125,0.16793893129770993,-0.5038167938931297,0.07633587786259542,stand
1604241086.265917,-0.0438232421875,0.97021484375,-0.2135009765625,0.6030534351145038,-1.702290076335878,-0.29770992366412213,stand
1604241086.305917,-0.0333251953125,0.970947265625,-0.2269287109375,1.2671755725190839,-1.6641221374045803,-0.10687022900763359,stand
1604241086.345917,-0.0479736328125,0.96435546875,-0.2198486328125,0.7175572519083969,-1.4122137404580153,-0.42748091603053434,stand
1604241086.385917,-0.0433349609375,0.97216796875,-0.2147216796875,0.4351145038167939,-0.4351145038167939,-0.19083969465648856,stand
1604241086.425917,-0.0399169921875,0.97265625,-0.2164306640625,0.9541984732824428,-2.4122137404580153,-0.5419847328244275,stand
1604241086.4659169,-0.0428466796875,0.9736328125,-0.2103271484375,0.31297709923664124,-0.4732824427480916,-0.05343511450381679,stand
1604241086.5059168,-0.0601806640625,0.970703125,-0.2049560546875,1.7328244274809161,-3.7557251908396947,0.3053435114503817,stand
1604241086.5459168,-0.0360107421875,0.97412109375,-0.2066650390625,0.5572519083969466,-3.0,-0.2824427480916031,stand
1604241086.5859168,-0.0433349609375,0.974609375,-0.2142333984375,0.22900763358778625,-1.4122137404580153,-0.05343511450381679,stand
1604241086.6259167,-0.0362548828125,0.970947265625,-0.2161865234375,1.4122137404580153,-1.8549618320610688,-0.24427480916030533,stand
1604241086.6659167,-0.0421142578125,0.973876953125,-0.2056884765625,0.17557251908396945,-1.8854961832061068,0.7251908396946565,stand
1604241086.7059166,-0.0369873046875,0.97509765625,-0.2171630859375,-0.22900763358778625,-2.5419847328244276,0.5038167938931297,stand
1604241086.7459166,-0.0506591796875,0.984130859375,-0.2227783203125,0.8015267175572519,-0.916030534351145,-0.04580152671755725,stand
1604241086.7859166,-0.0316162109375,0.978759765625,-0.2279052734375,1.450381679389313,-1.8244274809160306,-0.2824427480916031,stand
1604241086.8259165,-0.0418701171875,0.9716796875,-0.1888427734375,1.083969465648855,-2.572519083969466,0.0,stand
1604241086.8659165,-0.0457763671875,0.970703125,-0.2034912109375,1.7099236641221374,-2.549618320610687,-0.46564885496183206,stand
1604241086.9059165,-0.0360107421875,0.97314453125,-0.2154541015625,0.05343511450381679,-1.6106870229007633,-1.9312977099236641,stand
1604241086.9459164,-0.0396728515625,0.98046875,-0.2139892578125,0.40458015267175573,-2.404580152671756,0.10687022900763359,stand
1604241086.9859164,-0.0496826171875,0.971435546875,-0.2081298828125,1.9236641221374047,-0.12213740458015267,-0.6717557251908397,stand
1604241087.0259163,-0.0360107421875,0.975830078125,-0.2117919921875,0.549618320610687,-2.633587786259542,0.16793893129770993,stand
1604241087.0659163,-0.0430908203125,0.971923828125,-0.2098388671875,0.6793893129770993,-0.6946564885496184,-0.26717557251908397,stand
1604241087.1059163,-0.0457763671875,0.965087890625,-0.2203369140625,1.16793893129771,-3.145038167938931,-0.1297709923664122,stand
1604241087.1459162,-0.0343017578125,0.96142578125,-0.2291259765625,1.251908396946565,0.13740458015267176,-0.5038167938931297,stand
1604241087.1859162,-0.0501708984375,0.97705078125,-0.2181396484375,1.2366412213740459,0.04580152671755725,-0.5343511450381679,stand
1604241087.2259161,-0.0406494140625,0.971435546875,-0.2220458984375,-0.48854961832061067,-1.1526717557251909,0.12213740458015267,stand
1604241087.265916,-0.0511474609375,0.972900390625,-0.2298583984375,0.8702290076335878,-0.22137404580152673,-0.6412213740458015,stand
1604241087.305916,-0.0513916015625,0.979248046875,-0.2156982421875,0.09923664122137404,-0.5877862595419847,-0.4732824427480916,stand
1604241087.345916,-0.0550537109375,0.98291015625,-0.2286376953125,-1.9083969465648856,-0.6793893129770993,-0.6946564885496184,stand
1604241087.385916,-0.0350341796875,0.962890625,-0.2244873046875,0.8473282442748091,-0.9389312977099237,-0.3435114503816794,stand
1604241087.425916,-0.0430908203125,0.974853515625,-0.2076416015625,1.6564885496183206,0.48854961832061067,-0.4580152671755725,stand
1604241087.465916,-0.0357666015625,0.97216796875,-0.2056884765625,0.3969465648854962,-0.6946564885496184,0.44274809160305345,stand
1604241087.5059159,-0.0538330078125,0.968505859375,-0.2147216796875,0.46564885496183206,-0.9389312977099237,0.16030534351145037,stand
1604241087.5459158,-0.0479736328125,0.974365234375,-0.2161865234375,1.251908396946565,0.8320610687022901,0.12213740458015267,stand
1604241087.5859158,-0.0587158203125,0.9833984375,-0.2100830078125,0.9770992366412213,-1.6717557251908397,0.0,stand
1604241087.6259158,-0.0545654296875,0.970458984375,-0.2132568359375,0.15267175572519084,-1.1145038167938932,0.24427480916030533,stand
1604241087.6659157,-0.0435791015625,0.975830078125,-0.2303466796875,0.7862595419847328,-1.6564885496183206,-0.6412213740458015,stand
1604241087.7059157,-0.0423583984375,0.975830078125,-0.2122802734375,0.6259541984732825,-1.251908396946565,-0.3435114503816794,stand
1604241087.7459157,-0.0411376953125,0.973876953125,-0.2213134765625,0.7099236641221374,-2.7938931297709924,0.29770992366412213,stand
1604241087.7859156,-0.0445556640625,0.978271484375,-0.2152099609375,0.5114503816793893,-0.5572519083969466,0.40458015267175573,stand
1604241087.8259156,-0.0347900390625,0.973388671875,-0.2181396484375,1.6564885496183206,-1.816793893129771,-0.31297709923664124,stand
1604241087.8659155,-0.0411376953125,0.9658203125,-0.2108154296875,0.8320610687022901,-2.16793893129771,0.22137404580152673,stand
1604241087.9059155,-0.0460205078125,0.96923828125,-0.2117919921875,0.3282442748091603,-1.7938931297709924,0.21374045801526717,stand
1604241087.9459155,-0.0379638671875,0.97802734375,-0.2159423828125,1.2671755725190839,-0.6793893129770993,-0.2900763358778626,stand
1604241087.9859154,-0.0479736328125,0.9755859375,-0.2037353515625,0.40458015267175573,-0.7786259541984732,-0.08396946564885496,stand
1604241088.0259154,-0.0496826171875,0.971923828125,-0.2042236328125,1.4427480916030535,-1.1526717557251909,0.5267175572519084,stand
1604241088.0659153,-0.0609130859375,0.97314453125,-0.2364501953125,0.061068702290076333,-1.8778625954198473,0.46564885496183206,stand
1604241088.1059153,-0.0433349609375,0.973388671875,-0.2039794921875,2.0839694656488548,0.24427480916030533,-0.9312977099236641,stand
1604241088.1459153,-0.0401611328125,0.968994140625,-0.2122802734375,1.5877862595419847,-1.717557251908397,-0.2366412213740458,stand
1604241088.1859152,-0.0540771484375,0.970703125,-0.2191162109375,0.4198473282442748,-0.3053435114503817,-0.16793893129770993,stand
1604241088.2259152,-0.0347900390625,0.975830078125,-0.2144775390625,0.6412213740458015,-2.450381679389313,0.22137404580152673,stand
1604241088.2659152,-0.0325927734375,0.972412109375,-0.2125244140625,0.9312977099236641,-0.6106870229007634,-0.5419847328244275,stand
1604241088.305915,-0.0394287109375,0.976806640625,-0.2110595703125,0.6717557251908397,-2.8396946564885495,-0.022900763358778626,stand
1604241088.345915,-0.0496826171875,0.953369140625,-0.2105712890625,2.3893129770992365,-0.8854961832061069,-0.29770992366412213,stand
1604241088.385915,-0.0614013671875,0.97900390625,-0.2186279296875,0.46564885496183206,-0.8702290076335878,-0.3816793893129771,stand
1604241088.425915,-0.0386962890625,0.9755859375,-0.2049560546875,0.6030534351145038,-3.885496183206107,1.8625954198473282,stand
1604241088.465915,-0.0467529296875,0.974853515625,-0.1890869140625,1.1984732824427482,-0.5725190839694656,-0.6259541984732825,stand
1604241088.505915,-0.0404052734375,0.972412109375,-0.2100830078125,1.251908396946565,-2.5114503816793894,-0.2824427480916031,stand
1604241088.545915,-0.0447998046875,0.97998046875,-0.2218017578125,0.3816793893129771,-0.22137404580152673,-0.4351145038167939,stand
1604241088.5859149,-0.0426025390625,0.972412109375,-0.2181396484375,0.32061068702290074,-1.083969465648855,-0.20610687022900764,stand
1604241088.6259148,-0.0513916015625,0.97265625,-0.2122802734375,0.2900763358778626,0.6412213740458015,-0.6717557251908397,stand
1604241088.6659148,-0.0262451171875,0.9736328125,-0.2232666015625,0.8702290076335878,-1.282442748091603,-0.9847328244274809,stand
1604241088.7059147,-0.0408935546875,0.974853515625,-0.1983642578125,-0.9389312977099237,0.5419847328244275,0.2366412213740458,stand
1604241088.7459147,-0.0489501953125,0.979248046875,-0.2113037109375,1.0763358778625953,-0.9007633587786259,-0.5954198473282443,stand
1604241088.7859147,-0.0416259765625,0.978759765625,-0.2198486328125,0.24427480916030533,-0.7786259541984732,-1.8015267175572518,stand
1604241088.8259146,-0.0457763671875,0.971923828125,-0.1956787109375,0.8396946564885496,2.6106870229007635,-2.900763358778626,stand
1604241088.8659146,-0.0538330078125,0.981201171875,-0.1995849609375,0.48854961832061067,2.5114503816793894,-3.1068702290076335,stand
1604241088.9059145,-0.0584716796875,0.980712890625,-0.2069091796875,0.9465648854961832,2.6717557251908395,-3.5419847328244276,stand
1604241088.9459145,-0.0389404296875,0.98046875,-0.2127685546875,0.5954198473282443,3.9389312977099236,-2.8625954198473282,stand
1604241088.9859145,-0.0567626953125,0.955322265625,-0.2313232421875,2.595419847328244,1.9083969465648856,-2.4198473282442747,stand
1604241089.0259144,-0.0557861328125,0.963134765625,-0.2169189453125,1.282442748091603,0.732824427480916,-1.4122137404580153,stand
1604241089.0659144,-0.0499267578125,0.9833984375,-0.2117919921875,0.4580152671755725,0.816793893129771,-2.045801526717557,stand
1604241089.1059144,-0.0570068359375,0.97216796875,-0.2130126953125,1.900763358778626,3.3740458015267176,-3.7022900763358777,stand
1604241089.1459143,-0.0574951171875,0.96630859375,-0.2291259765625,1.3587786259541985,2.572519083969466,-3.7786259541984735,stand
1604241089.1859143,-0.0726318359375,0.970703125,-0.2125244140625,2.0229007633587788,2.5114503816793894,-2.984732824427481,stand
1604241089.2259142,-0.0491943359375,0.979736328125,-0.2213134765625,2.786259541984733,0.10687022900763359,-2.3435114503816794,stand
1604241089.2659142,-0.0633544921875,0.9697265625,-0.2034912109375,1.8396946564885497,1.3511450381679388,-2.1755725190839694,stand
1604241089.3059142,-0.0616455078125,0.98388671875,-0.2301025390625,1.2366412213740459,0.7480916030534351,-1.5877862595419847,stand
1604241089.3459141,-0.0687255859375,0.979248046875,-0.2052001953125,1.4961832061068703,-0.7251908396946565,-2.145038167938931,stand
1604241089.385914,-0.0797119140625,0.97216796875,-0.2183837890625,1.816793893129771,0.5038167938931297,-3.49618320610687,stand
1604241089.425914,-0.0684814453125,0.967041015625,-0.2286376953125,1.618320610687023,0.46564885496183206,-3.6793893129770994,stand
1604241089.465914,-0.0855712890625,0.968505859375,-0.2266845703125,1.9465648854961832,-0.8549618320610687,-2.2290076335877864,stand
1604241089.505914,-0.0926513671875,0.968017578125,-0.2239990234375,1.7251908396946565,-1.2442748091603053,-1.5114503816793894,stand
1604241089.545914,-0.0804443359375,0.963623046875,-0.2257080078125,2.0763358778625953,-1.3511450381679388,-1.4580152671755726,stand
1604241089.585914,-0.0841064453125,0.967041015625,-0.2232666015625,1.0916030534351144,-2.5114503816793894,-1.6793893129770991,stand
1604241089.6259139,-0.0950927734375,0.962158203125,-0.2237548828125,0.6870229007633588,0.22137404580152673,-1.3206106870229009,stand
1604241089.6659138,-0.0892333984375,0.9677734375,-0.2244873046875,1.1221374045801527,-4.1679389312977095,-0.9312977099236641,stand
1604241089.7059138,-0.0897216796875,0.960205078125,-0.2291259765625,0.8396946564885496,-4.022900763358779,-0.4351145038167939,stand
1604241089.7459137,-0.0902099609375,0.969482421875,-0.2325439453125,1.4809160305343512,-3.450381679389313,-1.1145038167938932,stand
1604241089.7859137,-0.0728759765625,0.982666015625,-0.2110595703125,1.1374045801526718,-3.7786259541984735,-0.24427480916030533,stand
1604241089.8259137,-0.0848388671875,0.953125,-0.2335205078125,0.6717557251908397,-5.114503816793893,-0.2900763358778626,stand
1604241089.8659136,-0.0560302734375,0.968505859375,-0.2244873046875,2.145038167938931,-4.259541984732825,0.3435114503816794,stand
1604241089.9059136,-0.0928955078125,0.968017578125,-0.2203369140625,0.3816793893129771,-3.4580152671755724,1.9465648854961832,stand
1604241089.9459136,-0.0843505859375,0.955810546875,-0.2093505859375,0.5038167938931297,-3.366412213740458,-1.1297709923664123,stand
1604241089.9859135,-0.0814208984375,0.9755859375,-0.2342529296875,0.3969465648854962,-1.6488549618320612,-1.6717557251908397,stand
1604241090.0259135,-0.0911865234375,0.9609375,-0.2142333984375,0.20610687022900764,-1.6717557251908397,-1.4045801526717556,stand
1604241090.0659134,-0.0916748046875,0.9765625,-0.2342529296875,0.8778625954198473,-2.6412213740458017,-1.3358778625954197,stand
1604241090.1059134,-0.0806884765625,0.953125,-0.2161865234375,0.25190839694656486,-1.2748091603053435,-1.6946564885496183,stand
1604241090.1459134,-0.0789794921875,0.966064453125,-0.2293701171875,-0.10687022900763359,-2.3206106870229006,-1.4045801526717556,stand
1604241090.1859133,-0.0782470703125,0.960693359375,-0.2288818359375,0.19083969465648856,-1.1068702290076335,-1.7328244274809161,stand
1604241090.2259133,-0.0819091796875,0.972412109375,-0.2205810546875,-0.2748091603053435,-0.13740458015267176,-0.6717557251908397,stand
1604241090.2659132,-0.0872802734375,0.96923828125,-0.2315673828125,0.9312977099236641,-3.0229007633587788,-1.5954198473282444,stand
1604241090.3059132,-0.0955810546875,0.969482421875,-0.2069091796875,0.1984732824427481,2.732824427480916,0.007633587786259542,stand
1604241090.3459132,-0.0970458984375,0.975341796875,-0.2115478515625,-0.13740458015267176,-0.1450381679389313,-1.748091603053435,stand
1604241090.3859131,-0.1256103515625,0.96875,-0.2286376953125,-0.3435114503816794,1.2213740458015268,-3.198473282442748,stand
1604241090.425913,-0.0902099609375,0.965576171875,-0.2188720703125,1.0,0.16030534351145037,-4.793893129770993,stand
1604241090.465913,-0.1221923828125,0.9599609375,-0.2315673828125,-0.24427480916030533,-0.7175572519083969,-6.00763358778626,stand
1604241090.505913,-0.1302490234375,0.95947265625,-0.2247314453125,0.35877862595419846,-0.2748091603053435,-5.931297709923665,stand
1604241090.545913,-0.1314697265625,0.955322265625,-0.2247314453125,0.9541984732824428,-3.5114503816793894,-5.396946564885496,stand
1604241090.585913,-0.1241455078125,0.96728515625,-0.2047119140625,-1.0687022900763359,-3.2977099236641223,-3.885496183206107,stand
1604241090.625913,-0.1334228515625,0.95654296875,-0.2149658203125,-1.3969465648854962,-2.7709923664122136,-4.129770992366412,stand
1604241090.6659129,-0.1741943359375,0.95849609375,-0.2137451171875,-0.6335877862595419,-3.6564885496183206,-4.396946564885496,stand
1604241090.7059128,-0.1456298828125,0.959716796875,-0.2066650390625,-0.1984732824427481,-7.083969465648855,-5.2748091603053435,stand
1604241090.7459128,-0.1348876953125,0.974853515625,-0.2205810546875,0.22900763358778625,-8.351145038167939,-0.9923664122137404,stand
1604241090.7859128,-0.1668701171875,0.9677734375,-0.2259521484375,0.4580152671755725,-10.312977099236642,2.6717557251908395,stand
1604241090.8259127,-0.1390380859375,0.982666015625,-0.2213134765625,-0.10687022900763359,-16.290076335877863,3.3969465648854964,stand
1604241090.8659127,-0.0921630859375,0.96484375,-0.2335205078125,0.04580152671755725,-7.3893129770992365,1.6870229007633588,stand
1604241090.9059126,-0.1278076171875,0.9501953125,-0.2220458984375,-2.3893129770992365,-4.801526717557252,1.8091603053435115,stand
1604241090.9459126,-0.1497802734375,0.973876953125,-0.2154541015625,-2.648854961832061,-5.809160305343512,2.9236641221374047,stand
1604241090.9859126,-0.1536865234375,0.949462890625,-0.2061767578125,-2.5801526717557253,-9.969465648854962,6.458015267175573,stand
1604241091.0259125,-0.1778564453125,0.947998046875,-0.2054443359375,-4.030534351145038,-9.51908396946565,10.351145038167939,stand
1604241091.0659125,-0.1387939453125,0.956298828125,-0.2083740234375,-2.381679389312977,-15.030534351145038,12.17557251908397,stand
1604241091.1059124,-0.1424560546875,0.97412109375,-0.1925048828125,-3.2748091603053435,-17.80916030534351,12.549618320610687,stand
1604241091.1459124,-0.0662841796875,0.962890625,-0.1934814453125,-1.3969465648854962,-17.358778625954198,9.694656488549619,stand
1604241091.1859124,-0.0467529296875,1.00439453125,-0.1876220703125,-4.312977099236641,-9.748091603053435,7.847328244274809,stand
1604241091.2259123,-0.1116943359375,0.981689453125,-0.1649169921875,-4.1679389312977095,-3.9160305343511452,2.1908396946564888,stand
1604241091.2659123,-0.0550537109375,0.9775390625,-0.1600341796875,-2.099236641221374,-2.8473282442748094,-1.5190839694656488,stand
1604241091.3059123,-0.0186767578125,0.986083984375,-0.1407470703125,-4.183206106870229,2.1603053435114505,0.8320610687022901,stand
1604241091.3459122,-0.0638427734375,0.97314453125,-0.1524658203125,0.816793893129771,-1.6641221374045803,1.099236641221374,stand
1604241091.3859122,-0.0897216796875,0.986572265625,-0.1275634765625,-1.6870229007633588,-0.5877862595419847,1.8015267175572518,stand
1604241091.4259121,-0.0196533203125,0.998291015625,-0.1524658203125,-0.16030534351145037,-1.4961832061068703,2.4427480916030535,stand
1604241091.465912,-0.0662841796875,0.984375,-0.1551513671875,1.083969465648855,-1.9389312977099236,1.213740458015267,stand
1604241091.505912,-0.0704345703125,0.976318359375,-0.1536865234375,1.4885496183206106,2.015267175572519,0.2748091603053435,stand
1604241091.545912,-0.0440673828125,0.9931640625,-0.1544189453125,2.2977099236641223,1.3893129770992367,0.46564885496183206,stand
1604241091.585912,-0.0499267578125,0.97802734375,-0.1527099609375,3.3969465648854964,1.2290076335877862,1.8854961832061068,stand
1604241091.625912,-0.0733642578125,0.980224609375,-0.1446533203125,4.0458015267175576,2.5801526717557253,0.48854961832061067,stand
1604241091.665912,-0.0438232421875,0.978515625,-0.1820068359375,4.709923664122138,-0.1984732824427481,-0.9465648854961832,stand
1604241091.7059119,-0.0675048828125,0.99853515625,-0.1683349609375,3.9389312977099236,7.847328244274809,-1.366412213740458,stand
1604241091.7459118,-0.0853271484375,0.975830078125,-0.1737060546875,2.732824427480916,6.114503816793893,-1.2900763358778626,stand
1604241091.7859118,-0.1014404296875,0.969970703125,-0.1629638671875,3.854961832061069,4.419847328244275,-1.9465648854961832,stand
1604241091.8259118,-0.0748291015625,0.9873046875,-0.1651611328125,4.091603053435114,5.908396946564886,-1.7404580152671756,stand
1604241091.8659117,-0.0926513671875,0.96728515625,-0.1800537109375,1.8549618320610688,6.1603053435114505,-1.7709923664122138,stand
1604241091.9059117,-0.1138916015625,0.967529296875,-0.1861572265625,4.404580152671755,4.549618320610687,-1.8091603053435115,stand
1604241091.9459116,-0.1016845703125,0.968505859375,-0.1654052734375,5.091603053435114,0.6259541984732825,-1.3587786259541985,stand
1604241091.9859116,-0.0865478515625,0.97705078125,-0.1846923828125,4.4961832061068705,-1.1603053435114503,-0.2824427480916031,stand
1604241092.0259116,-0.0941162109375,0.96484375,-0.1837158203125,5.770992366412214,-2.427480916030534,-0.916030534351145,stand
1604241092.0659115,-0.0860595703125,0.969970703125,-0.2269287109375,4.931297709923665,-2.854961832061069,-0.2900763358778626,stand
1604241092.1059115,-0.0809326171875,0.9658203125,-0.2093505859375,5.038167938931298,-2.969465648854962,-0.29770992366412213,stand
1604241092.1459115,-0.0626220703125,0.967041015625,-0.2127685546875,5.732824427480916,-3.786259541984733,0.05343511450381679,stand
1604241092.1859114,-0.0765380859375,0.96923828125,-0.2332763671875,3.33587786259542,-1.8702290076335877,0.6259541984732825,stand
1604241092.2259114,-0.0762939453125,0.98388671875,-0.2259521484375,4.740458015267175,-1.8396946564885497,0.732824427480916,stand
1604241092.2659113,-0.0850830078125,0.9619140625,-0.2088623046875,4.793893129770993,3.900763358778626,-0.16030534351145037,stand
1604241092.3059113,-0.0916748046875,0.971435546875,-0.2481689453125,4.442748091603053,2.969465648854962,0.6564885496183206,stand
1604241092.3459113,-0.1248779296875,0.953369140625,-0.2332763671875,2.7404580152671754,-0.22137404580152673,2.366412213740458,stand
1604241092.3859112,-0.1341552734375,0.94140625,-0.2352294921875,3.045801526717557,-1.2290076335877862,1.5877862595419847,stand
1604241092.4259112,-0.1148681640625,0.960693359375,-0.2415771484375,1.6412213740458015,1.1068702290076335,1.549618320610687,stand
1604241092.4659111,-0.1121826171875,0.955810546875,-0.2313232421875,-1.9312977099236641,-0.20610687022900764,3.900763358778626,stand
1604241092.505911,-0.1260986328125,0.9580078125,-0.2352294921875,-0.2900763358778626,-5.145038167938932,5.106870229007634,stand
1604241092.545911,-0.1060791015625,0.966064453125,-0.2401123046875,-1.4274809160305344,-6.977099236641221,5.702290076335878,stand
1604241092.585911,-0.0589599609375,0.9658203125,-0.2525634765625,-2.717557251908397,-4.259541984732825,6.801526717557252,stand
1604241092.625911,-0.0718994140625,0.968505859375,-0.2325439453125,-1.0534351145038168,-3.068702290076336,6.511450381679389,stand
1604241092.665911,-0.0845947265625,0.966064453125,-0.2254638671875,-0.549618320610687,-5.320610687022901,5.709923664122138,stand
1604241092.705911,-0.0572509765625,0.964599609375,-0.2056884765625,-1.9312977099236641,-6.6183206106870225,5.717557251908397,stand
1604241092.745911,-0.0389404296875,0.97265625,-0.2103271484375,-1.8244274809160306,-7.66412213740458,5.358778625954199,stand
1604241092.7859108,-0.0313720703125,0.972900390625,-0.2003173828125,1.1603053435114503,-7.038167938931298,4.7251908396946565,stand
1604241092.8259108,-0.0616455078125,0.976318359375,-0.2020263671875,2.4122137404580153,-10.65648854961832,8.450381679389313,stand
1604241092.8659108,-0.0592041015625,0.98046875,-0.2120361328125,-0.7709923664122137,-13.427480916030534,10.236641221374045,stand
1604241092.9059107,-0.0118408203125,0.970458984375,-0.2200927734375,1.8625954198473282,-11.954198473282442,7.412213740458015,stand
1604241092.9459107,0.007080078125,0.981689453125,-0.2396240234375,0.5038167938931297,-5.32824427480916,6.1679389312977095,stand
1604241092.9859107,-0.0032958984375,0.97021484375,-0.2091064453125,-0.8854961832061069,-3.7251908396946565,4.137404580152672,stand
1604241093.0259106,-0.0052490234375,0.9794921875,-0.2186279296875,0.1984732824427481,-4.809160305343512,3.900763358778626,stand
1604241093.0659106,0.002197265625,0.9794921875,-0.2012939453125,0.9083969465648855,-3.618320610687023,3.2977099236641223,stand
1604241093.1059105,0.015380859375,0.99267578125,-0.2147216796875,1.5114503816793894,-1.0458015267175573,5.2748091603053435,stand
1604241093.1459105,-0.0277099609375,0.980712890625,-0.1793212890625,3.7938931297709924,-11.091603053435115,5.259541984732825,stand
1604241093.1859105,-0.0196533203125,0.98046875,-0.2081298828125,3.3893129770992365,-10.13740458015267,4.625954198473282,stand
1604241093.2259104,0.054931640625,0.963623046875,-0.2252197265625,3.5343511450381677,-8.755725190839694,2.480916030534351,stand
1604241093.2659104,0.020751953125,0.982177734375,-0.2208251953125,2.5419847328244276,2.7251908396946565,1.7633587786259541,stand
1604241093.3059103,-0.0142822265625,0.982177734375,-0.1907958984375,3.1755725190839694,3.786259541984733,1.5267175572519085,stand
1604241093.3459103,-0.0377197265625,0.98779296875,-0.1871337890625,4.5038167938931295,-3.3282442748091605,2.7480916030534353,stand
1604241093.3859103,-0.0482177734375,0.9794921875,-0.1812744140625,3.8702290076335877,-6.770992366412214,2.633587786259542,stand
1604241093.4259102,0.028076171875,0.968017578125,-0.2322998046875,5.267175572519084,-8.022900763358779,-0.10687022900763359,stand
1604241093.4659102,0.02685546875,0.97900390625,-0.2445068359375,3.8396946564885495,-0.4580152671755725,-0.6793893129770993,stand
1604241093.5059102,0.001220703125,0.98046875,-0.2437744140625,1.7099236641221374,1.8244274809160306,-0.31297709923664124,stand
1604241093.5459101,0.0048828125,0.971435546875,-0.2344970703125,4.0534351145038165,-3.7251908396946565,-0.6183206106870229,stand
1604241093.58591,0.0078125,0.97265625,-0.2510986328125,3.9923664122137406,-0.4122137404580153,-0.816793893129771,stand
1604241093.62591,0.008056640625,0.9609375,-0.2335205078125,4.0,3.2290076335877864,-1.1603053435114503,stand
1604241093.66591,-0.0125732421875,0.98193359375,-0.2420654296875,2.763358778625954,-0.5572519083969466,-1.702290076335878,stand
1604241093.70591,-0.0345458984375,0.9736328125,-0.2318115234375,2.6259541984732824,1.4580152671755726,-2.6564885496183206,stand
1604241093.74591,-0.0281982421875,0.97216796875,-0.2386474609375,2.5419847328244276,-0.6259541984732825,-2.2977099236641223,stand
1604241093.78591,-0.0140380859375,0.973876953125,-0.2598876953125,1.6564885496183206,-3.66412213740458,-3.16793893129771,stand
1604241093.8259099,-0.0089111328125,0.959716796875,-0.2491455078125,0.9312977099236641,0.7862595419847328,-4.572519083969466,stand
1604241093.8659098,0.02734375,0.978271484375,-0.2586669921875,0.5954198473282443,4.3893129770992365,-5.450381679389313,stand
1604241093.9059098,0.00341796875,0.974853515625,-0.2557373046875,-1.6793893129770991,5.717557251908397,-5.3816793893129775,stand
1604241093.9459097,0.005615234375,0.953125,-0.2530517578125,-0.16793893129770993,12.48091603053435,-6.7251908396946565,stand
1604241093.9859097,-0.0018310546875,0.95947265625,-0.2620849609375,-2.7022900763358777,12.061068702290076,-6.572519083969466,stand
1604241094.0259097,-0.0167236328125,0.981689453125,-0.2569580078125,-2.0076335877862594,13.145038167938932,-7.374045801526718,stand
1604241094.0659096,-0.0479736328125,0.9765625,-0.2110595703125,-3.1068702290076335,12.86259541984733,-5.732824427480916,stand
1604241094.1059096,-0.0670166015625,0.966796875,-0.2215576171875,-0.8015267175572519,3.236641221374046,-3.7557251908396947,stand
1604241094.1459095,-0.0675048828125,0.983154296875,-0.2257080078125,-1.6030534351145038,1.786259541984733,-3.2977099236641223,stand
1604241094.1859095,-0.0452880859375,0.975830078125,-0.2252197265625,-0.06870229007633588,4.404580152671755,-5.473282442748092,stand
1604241094.2259095,-0.0579833984375,0.96142578125,-0.2076416015625,-1.5725190839694656,9.34351145038168,-6.343511450381679,stand
1604241094.2659094,-0.0601806640625,0.9580078125,-0.2315673828125,0.007633587786259542,11.221374045801527,-6.931297709923665,stand
1604241094.3059094,-0.0740966796875,0.965576171875,-0.2091064453125,-0.5572519083969466,8.625954198473282,-7.068702290076335,stand
1604241094.3459094,-0.0582275390625,0.9619140625,-0.2034912109375,1.0381679389312977,12.572519083969466,-7.801526717557252,stand
1604241094.3859093,-0.0992431640625,0.968994140625,-0.2147216796875,0.3893129770992366,7.198473282442748,-4.488549618320611,stand
1604241094.4259093,-0.1011962890625,0.9736328125,-0.2078857421875,0.6412213740458015,6.595419847328245,-3.030534351145038,stand
1604241094.4659092,-0.0828857421875,0.97119140625,-0.2366943359375,-2.045801526717557,3.9923664122137406,-2.49618320610687,stand
1604241094.5059092,-0.0970458984375,0.9609375,-0.2108154296875,1.1297709923664123,4.862595419847328,-2.5877862595419847,stand
1604241094.5459092,-0.0853271484375,0.969970703125,-0.2203369140625,0.15267175572519084,0.3511450381679389,-2.2748091603053435,stand
1604241094.5859091,-0.0950927734375,0.95703125,-0.2086181640625,-1.900763358778626,-0.6335877862595419,-0.366412213740458,stand
1604241094.625909,-0.0911865234375,0.97705078125,-0.2108154296875,0.9694656488549618,-2.282442748091603,-0.6335877862595419,stand
1604241094.665909,-0.0858154296875,0.9619140625,-0.2139892578125,1.8931297709923665,-2.8091603053435112,0.007633587786259542,stand
1604241094.705909,-0.0904541015625,0.9638671875,-0.2166748046875,0.549618320610687,-5.778625954198473,1.3893129770992367,stand
1604241094.745909,-0.0733642578125,0.972412109375,-0.2298583984375,-0.648854961832061,-10.236641221374045,1.4809160305343512,stand
1604241094.785909,-0.0560302734375,0.962646484375,-0.2325439453125,0.09923664122137404,-8.900763358778626,0.9389312977099237,stand
1604241094.825909,-0.0169677734375,0.9716796875,-0.2283935546875,0.42748091603053434,-5.885496183206107,-0.007633587786259542,stand
1604241094.8659089,-0.0445556640625,0.96630859375,-0.2410888671875,0.24427480916030533,-1.9770992366412214,0.16030534351145037,stand
1604241094.9059088,-0.0452880859375,0.95751953125,-0.2176513671875,0.3893129770992366,0.7633587786259542,-0.12213740458015267,stand
1604241094.9459088,-0.0596923828125,0.953857421875,-0.1910400390625,0.6564885496183206,-3.984732824427481,0.7862595419847328,stand
1604241094.9859087,-0.0653076171875,0.965576171875,-0.2125244140625,0.7786259541984732,-4.236641221374046,0.7251908396946565,stand
1604241095.0259087,-0.0635986328125,0.955322265625,-0.2032470703125,0.7099236641221374,-5.969465648854962,1.534351145038168,stand
1604241095.0659087,-0.0577392578125,0.95361328125,-0.2171630859375,2.236641221374046,-3.0610687022900764,1.4961832061068703,stand
1604241095.1059086,-0.0809326171875,0.974609375,-0.2120361328125,1.0381679389312977,-3.3893129770992365,0.022900763358778626,stand
1604241095.1459086,-0.0479736328125,0.969970703125,-0.2091064453125,1.6717557251908397,-1.1984732824427482,0.5725190839694656,stand
1604241095.1859086,-0.0738525390625,0.96923828125,-0.2078857421875,1.4045801526717556,1.4274809160305344,0.10687022900763359,stand
1604241095.2259085,-0.0887451171875,0.97314453125,-0.1922607421875,1.213740458015267,0.5572519083969466,0.3282442748091603,stand
1604241095.2659085,-0.0916748046875,0.977783203125,-0.2174072265625,0.9618320610687023,-0.33587786259541985,0.37404580152671757,stand
1604241095.3059084,-0.0682373046875,0.97314453125,-0.1959228515625,1.748091603053435,-2.763358778625954,1.0458015267175573,stand
1604241095.3459084,-0.0538330078125,0.9716796875,-0.2198486328125,1.1908396946564885,-1.83206106870229,1.0,stand
1604241095.3859084,-0.0592041015625,0.97216796875,-0.2071533203125,2.213740458015267,-4.969465648854962,1.7099236641221374,stand
1604241095.4259083,-0.0548095703125,0.980712890625,-0.2159423828125,0.8473282442748091,-3.4580152671755724,1.1374045801526718,stand
1604241095.4659083,-0.0325927734375,0.9697265625,-0.2213134765625,2.2519083969465647,-0.5419847328244275,0.2900763358778626,stand
1604241095.5059083,-0.0487060546875,0.97216796875,-0.2227783203125,0.030534351145038167,0.6793893129770993,0.7938931297709924,stand
1604241095.5459082,-0.0518798828125,0.975830078125,-0.2198486328125,0.9312977099236641,0.9541984732824428,0.061068702290076333,stand
1604241095.5859082,-0.0411376953125,0.96826171875,-0.2056884765625,0.7862595419847328,0.04580152671755725,-0.35877862595419846,stand
1604241095.6259081,-0.0589599609375,0.978515625,-0.2125244140625,0.9236641221374046,1.816793893129771,-0.7480916030534351,stand
1604241095.665908,-0.0589599609375,0.970947265625,-0.2086181640625,0.8091603053435115,0.007633587786259542,-0.21374045801526717,stand
1604241095.705908,-0.0494384765625,0.97509765625,-0.2313232421875,1.4961832061068703,-0.5419847328244275,-0.12213740458015267,stand
1604241095.745908,-0.0401611328125,0.970703125,-0.2186279296875,1.366412213740458,-1.3282442748091603,0.9618320610687023,stand
1604241095.785908,-0.0538330078125,0.97314453125,-0.2247314453125,1.6946564885496183,-1.2595419847328244,1.1221374045801527,stand
1604241095.825908,-0.0479736328125,0.973876953125,-0.2198486328125,1.5419847328244274,-1.7251908396946565,0.7633587786259542,stand
1604241095.865908,-0.0494384765625,0.95361328125,-0.2283935546875,0.8244274809160306,-0.4198473282442748,0.29770992366412213,stand
1604241095.9059079,-0.0518798828125,0.97802734375,-0.2244873046875,1.3129770992366412,-1.7938931297709924,0.7404580152671756,stand
1604241095.9459078,-0.0443115234375,0.960205078125,-0.2132568359375,1.083969465648855,-2.122137404580153,0.8091603053435115,stand
1604241095.9859078,-0.0467529296875,0.9716796875,-0.2225341796875,2.6564885496183206,-3.687022900763359,0.7557251908396947,stand
1604241096.0259078,-0.0421142578125,0.9638671875,-0.2220458984375,-0.5572519083969466,-0.24427480916030533,1.0534351145038168,stand
1604241096.0659077,-0.0438232421875,0.9697265625,-0.2132568359375,0.9236641221374046,-1.5190839694656488,1.3206106870229009,stand
1604241096.1059077,-0.0511474609375,0.97119140625,-0.2193603515625,-0.6793893129770993,-2.2595419847328246,1.5648854961832062,stand
1604241096.1459076,-0.0482177734375,0.97265625,-0.2259521484375,1.0916030534351144,0.42748091603053434,0.33587786259541985,stand
1604241096.1859076,-0.0584716796875,0.970947265625,-0.2191162109375,0.3816793893129771,-0.5419847328244275,0.24427480916030533,stand
1604241096.2259076,-0.0516357421875,0.9736328125,-0.2215576171875,0.6183206106870229,-0.48091603053435117,-0.25190839694656486,stand
1604241096.2659075,-0.0655517578125,0.9638671875,-0.2198486328125,0.7251908396946565,-0.816793893129771,-0.03816793893129771,stand
1604241096.3059075,-0.0426025390625,0.97265625,-0.2303466796875,0.7404580152671756,-1.1755725190839694,0.15267175572519084,stand
1604241096.3459074,-0.0777587890625,0.97314453125,-0.2159423828125,0.9312977099236641,-3.1374045801526718,0.5267175572519084,stand
1604241096.3859074,-0.0506591796875,0.975341796875,-0.2274169921875,0.9847328244274809,-2.312977099236641,-0.4122137404580153,stand
1604241096.4259074,-0.0313720703125,0.984130859375,-0.2318115234375,0.1450381679389313,-0.916030534351145,0.4961832061068702,stand
1604241096.4659073,-0.0482177734375,0.975341796875,-0.2139892578125,-0.15267175572519084,-0.549618320610687,1.015267175572519,stand
1604241096.5059073,-0.0455322265625,0.9677734375,-0.2042236328125,0.9312977099236641,-1.633587786259542,0.8931297709923665,stand
1604241096.5459073,-0.0479736328125,0.971923828125,-0.2469482421875,-1.5190839694656488,-2.053435114503817,1.2442748091603053,stand
1604241096.5859072,-0.0372314453125,0.971435546875,-0.2061767578125,0.3053435114503817,-2.068702290076336,0.6106870229007634,stand
1604241096.6259072,-0.0699462890625,0.979736328125,-0.2054443359375,0.8396946564885496,-2.381679389312977,0.9465648854961832,stand
1604241096.6659071,-0.0509033203125,0.978515625,-0.2054443359375,-0.007633587786259542,-3.16793893129771,1.015267175572519,stand
1604241096.705907,-0.0572509765625,0.977294921875,-0.2078857421875,-0.04580152671755725,-3.2977099236641223,0.8396946564885496,stand
1604241096.745907,-0.0377197265625,0.972412109375,-0.2103271484375,1.0610687022900764,-1.9389312977099236,0.6641221374045801,stand
1604241096.785907,-0.0582275390625,0.9794921875,-0.2178955078125,0.09923664122137404,-2.8244274809160306,0.6030534351145038,stand
1604241096.825907,-0.0303955078125,0.96875,-0.2283935546875,0.6259541984732825,-1.2213740458015268,0.8931297709923665,stand
1604241096.865907,-0.0501708984375,0.979736328125,-0.2203369140625,-0.549618320610687,-2.1526717557251906,1.6717557251908397,stand
1604241096.905907,-0.0440673828125,0.974853515625,-0.2076416015625,-0.022900763358778626,-0.4732824427480916,0.9541984732824428,stand
1604241096.9459069,-0.0469970703125,0.972900390625,-0.2142333984375,1.5419847328244274,-1.099236641221374,0.21374045801526717,stand
1604241096.9859068,-0.0430908203125,0.974609375,-0.2061767578125,1.9389312977099236,-1.7786259541984732,0.7022900763358778,stand
1604241097.0259068,-0.0413818359375,0.9765625,-0.2034912109375,1.297709923664122,-0.6793893129770993,-0.04580152671755725,stand
1604241097.0659068,-0.0487060546875,0.9716796875,-0.2113037109375,1.5572519083969465,-0.816793893129771,-0.22900763358778625,stand
1604241097.1059067,-0.0284423828125,0.9736328125,-0.2132568359375,0.7175572519083969,0.5648854961832062,-0.24427480916030533,stand
1604241097.1459067,-0.0426025390625,0.967041015625,-0.2069091796875,1.534351145038168,0.8244274809160306,-0.9541984732824428,stand
1604241097.1859066,-0.0391845703125,0.981689453125,-0.2095947265625,1.3511450381679388,1.4045801526717556,-0.3816793893129771,stand
1604241097.2259066,-0.0604248046875,0.96826171875,-0.2220458984375,2.1374045801526718,0.816793893129771,-0.5801526717557252,stand
1604241097.2659066,-0.0460205078125,0.98388671875,-0.2127685546875,1.900763358778626,2.068702290076336,-0.7480916030534351,stand
1604241097.3059065,-0.0413818359375,0.975341796875,-0.2052001953125,0.9083969465648855,0.015267175572519083,-0.12213740458015267,stand
1604241097.3459065,-0.0318603515625,0.9814453125,-0.2115478515625,1.1908396946564885,2.8244274809160306,-1.015267175572519,stand
1604241097.3859065,-0.0404052734375,0.979248046875,-0.2156982421875,2.213740458015267,0.030534351145038167,-1.1221374045801527,stand
1604241097.4259064,-0.0479736328125,0.9775390625,-0.2320556640625,1.2748091603053435,1.8549618320610688,-0.7938931297709924,stand
1604241097.4659064,-0.0572509765625,0.969970703125,-0.2237548828125,2.6412213740458017,0.16030534351145037,-0.9694656488549618,stand
1604241097.5059063,-0.0570068359375,0.95361328125,-0.2288818359375,2.404580152671756,-0.4580152671755725,-0.4732824427480916,stand
1604241097.5459063,-0.0523681640625,0.970458984375,-0.2449951171875,0.2595419847328244,-2.16793893129771,0.5877862595419847,stand
1604241097.5859063,-0.0404052734375,0.96826171875,-0.2264404296875,2.2290076335877864,-0.7175572519083969,0.015267175572519083,stand
1604241097.6259062,-0.0399169921875,0.97265625,-0.2305908203125,0.48091603053435117,-1.366412213740458,0.1297709923664122,stand
1604241097.6659062,-0.0411376953125,0.96337890625,-0.2269287109375,2.1374045801526718,-0.09923664122137404,-0.17557251908396945,stand
1604241097.7059062,-0.0433349609375,0.9697265625,-0.2286376953125,0.6793893129770993,-0.33587786259541985,0.6106870229007634,stand
1604241097.745906,-0.0513916015625,0.968505859375,-0.2293701171875,-0.007633587786259542,-1.2595419847328244,1.366412213740458,stand
1604241097.785906,-0.0362548828125,0.9677734375,-0.2288818359375,1.4045801526717556,-2.2442748091603053,0.8778625954198473,stand
1604241097.825906,-0.0538330078125,0.973388671875,-0.2340087890625,-0.6030534351145038,-0.2824427480916031,0.9007633587786259,stand
1604241097.865906,-0.0406494140625,0.979248046875,-0.2034912109375,0.26717557251908397,-3.0916030534351147,0.6564885496183206,stand
1604241097.905906,-0.0303955078125,0.981689453125,-0.2198486328125,0.366412213740458,-2.946564885496183,1.0687022900763359,stand
1604241097.945906,-0.0447998046875,0.967529296875,-0.2176513671875,0.12213740458015267,-2.3587786259541983,0.9770992366412213,stand
1604241097.985906,-0.0404052734375,0.9814453125,-0.2237548828125,0.648854961832061,-3.3969465648854964,1.0534351145038168,stand
1604241098.0259058,-0.0369873046875,0.955078125,-0.2310791015625,0.8320610687022901,-2.3206106870229006,0.37404580152671757,stand
1604241098.0659058,-0.0289306640625,0.97265625,-0.2235107421875,0.44274809160305345,-0.7786259541984732,0.2900763358778626,stand
1604241098.1059058,-0.0479736328125,0.9716796875,-0.2154541015625,0.05343511450381679,-2.9083969465648853,0.6717557251908397,stand
1604241098.1459057,-0.0267333984375,0.9765625,-0.2218017578125,3.877862595419847,-0.26717557251908397,-0.183206106870229,stand
1604241098.1859057,-0.0396728515625,0.954833984375,-0.2071533203125,0.022900763358778626,-3.6412213740458017,0.5419847328244275,stand
1604241098.2259057,-0.0367431640625,0.953125,-0.2208251953125,0.6564885496183206,-2.1755725190839694,-0.061068702290076333,stand
1604241098.2659056,-0.0374755859375,0.955322265625,-0.2130126953125,0.0,-2.1603053435114505,0.4580152671755725,stand
1604241098.3059056,-0.0255126953125,0.975341796875,-0.2125244140625,0.20610687022900764,-3.5343511450381677,1.0534351145038168,stand
1604241098.3459055,-0.0306396484375,0.9794921875,-0.2318115234375,0.3893129770992366,-0.6412213740458015,0.5801526717557252,stand
1604241098.3859055,-0.0301513671875,0.972412109375,-0.2174072265625,1.6946564885496183,-0.0916030534351145,-1.8549618320610688,stand
1604241098.4259055,-0.0374755859375,0.977294921875,-0.2208251953125,-0.4198473282442748,-1.3587786259541985,0.9465648854961832,stand
1604241098.4659054,-0.0482177734375,0.972900390625,-0.2044677734375,0.8854961832061069,-1.8244274809160306,0.3511450381679389,stand
1604241098.5059054,-0.0426025390625,0.974853515625,-0.2154541015625,0.9541984732824428,-0.8549618320610687,0.09923664122137404,stand
1604241098.5459054,-0.0338134765625,0.97998046875,-0.2069091796875,0.7786259541984732,-0.916030534351145,-0.24427480916030533,stand
1604241098.5859053,-0.0455322265625,0.980712890625,-0.2108154296875,0.20610687022900764,-1.3358778625954197,0.08396946564885496,stand
1604241098.6259053,-0.0206298828125,0.972900390625,-0.2166748046875,0.9007633587786259,-1.9923664122137406,0.40458015267175573,stand
1604241098.6659052,-0.0384521484375,0.9736328125,-0.2132568359375,0.9236641221374046,0.1984732824427481,0.31297709923664124,stand
1604241098.7059052,-0.0252685546875,0.9765625,-0.2203369140625,0.5038167938931297,-0.6717557251908397,-0.6793893129770993,stand
1604241098.7459052,-0.0364990234375,0.9755859375,-0.2166748046875,0.9541984732824428,-1.6641221374045803,-0.8625954198473282,stand
1604241098.7859051,-0.0389404296875,0.969970703125,-0.2139892578125,0.2595419847328244,-0.030534351145038167,-0.648854961832061,stand
1604241098.825905,-0.0164794921875,0.977294921875,-0.2188720703125,0.7633587786259542,-1.2900763358778626,0.06870229007633588,stand
1604241098.865905,-0.0335693359375,0.977294921875,-0.2047119140625,0.8091603053435115,-0.10687022900763359,0.2824427480916031,stand
1604241098.905905,-0.0213623046875,0.982421875,-0.2081298828125,0.6183206106870229,-0.0916030534351145,-0.05343511450381679,stand
1604241098.945905,-0.0396728515625,0.953369140625,-0.2169189453125,1.2061068702290076,0.20610687022900764,-0.2595419847328244,stand
1604241098.985905,-0.0406494140625,0.955810546875,-0.2271728515625,0.816793893129771,0.16030534351145037,-0.7480916030534351,stand
1604241099.025905,-0.0570068359375,0.97119140625,-0.2120361328125,0.8396946564885496,-0.4961832061068702,-0.9083969465648855,stand
1604241099.0659049,-0.0396728515625,0.9716796875,-0.2235107421875,0.5572519083969466,0.31297709923664124,-0.26717557251908397,stand
1604241099.1059048,-0.0386962890625,0.970947265625,-0.2191162109375,1.7251908396946565,-1.251908396946565,-1.0534351145038168,stand
1604241099.1459048,-0.0416259765625,0.972412109375,-0.2054443359375,0.22900763358778625,-1.8778625954198473,0.007633587786259542,stand
1604241099.1859047,-0.0260009765625,0.970458984375,-0.2269287109375,0.4732824427480916,-0.6183206106870229,-1.83206106870229,stand
1604241099.2259047,-0.0482177734375,0.97265625,-0.2113037109375,1.4732824427480915,-0.5343511450381679,1.8244274809160306,stand
1604241099.2659047,-0.0404052734375,0.978515625,-0.2147216796875,0.48854961832061067,-1.1984732824427482,-0.20610687022900764,stand
1604241099.3059046,-0.0443115234375,0.966064453125,-0.2193603515625,0.9312977099236641,0.07633587786259542,-0.8015267175572519,stand
1604241099.3459046,-0.0445556640625,0.969482421875,-0.2120361328125,0.8702290076335878,-0.31297709923664124,-0.31297709923664124,stand
1604241099.3859046,-0.0291748046875,0.964599609375,-0.2188720703125,1.9312977099236641,-1.0458015267175573,0.0916030534351145,stand
1604241099.4259045,-0.0350341796875,0.965087890625,-0.2191162109375,1.1984732824427482,-0.5114503816793893,-0.32061068702290074,stand
1604241099.4659045,-0.0423583984375,0.97216796875,-0.2164306640625,1.5877862595419847,0.22900763358778625,-1.3053435114503817,stand
1604241099.5059044,-0.0330810546875,0.97021484375,-0.2030029296875,0.648854961832061,-1.3511450381679388,-0.3435114503816794,stand
1604241099.5459044,-0.0540771484375,0.9716796875,-0.2166748046875,1.3511450381679388,-0.4580152671755725,-1.2900763358778626,stand
1604241099.5859044,-0.0391845703125,0.97998046875,-0.2152099609375,0.8244274809160306,-0.31297709923664124,-1.0534351145038168,stand
1604241099.6259043,-0.0428466796875,0.97412109375,-0.1905517578125,1.4885496183206106,-2.2061068702290076,-0.8625954198473282,stand
1604241099.6659043,-0.0487060546875,0.97509765625,-0.2183837890625,1.3206106870229009,-1.0076335877862594,-0.9312977099236641,stand
1604241099.7059042,-0.0399169921875,0.97021484375,-0.2286376953125,1.0305343511450382,-1.5877862595419847,-0.44274809160305345,stand
1604241099.7459042,-0.0511474609375,0.95556640625,-0.1976318359375,0.4198473282442748,0.22900763358778625,-0.6641221374045801,stand
1604241099.7859042,-0.0618896484375,0.9736328125,-0.2318115234375,1.0381679389312977,-2.8244274809160306,-1.0381679389312977,stand
1604241099.8259041,-0.0599365234375,0.979736328125,-0.2413330078125,-0.20610687022900764,-1.5725190839694656,-0.2900763358778626,stand
1604241099.865904,-0.0391845703125,0.98388671875,-0.2064208984375,1.6946564885496183,-1.282442748091603,-0.8396946564885496,stand
1604241099.905904,-0.0540771484375,0.96435546875,-0.2142333984375,0.7557251908396947,-2.6106870229007635,0.0916030534351145,stand
1604241099.945904,-0.0391845703125,0.9736328125,-0.2313232421875,1.3893129770992367,-1.2366412213740459,-1.0229007633587786,stand
1604241099.985904,-0.0501708984375,0.96630859375,-0.2193603515625,1.0305343511450382,-0.9007633587786259,-1.4351145038167938,stand
1604241100.025904,-0.0462646484375,0.971923828125,-0.2247314453125,1.2290076335877862,-1.7328244274809161,-1.6793893129770991,stand
1604241100.065904,-0.0455322265625,0.958740234375,-0.2205810546875,0.6412213740458015,0.3511450381679389,-1.465648854961832,stand
1604241100.1059039,-0.0494384765625,0.9677734375,-0.2120361328125,1.213740458015267,-1.5572519083969465,-1.213740458015267,stand
1604241100.1459038,-0.0535888671875,0.969970703125,-0.2239990234375,1.5190839694656488,-0.40458015267175573,-1.5114503816793894,stand
1604241100.1859038,-0.0482177734375,0.96044921875,-0.2337646484375,1.5267175572519085,-2.122137404580153,-1.1603053435114503,stand
1604241100.2259037,-0.0679931640625,0.974609375,-0.2183837890625,0.6183206106870229,-0.6641221374045801,-0.8244274809160306,stand
1604241100.2659037,-0.0518798828125,0.976318359375,-0.2208251953125,1.4045801526717556,-3.1297709923664123,0.1297709923664122,stand
1604241100.3059037,-0.0697021484375,0.96923828125,-0.2222900390625,0.8625954198473282,-3.0763358778625953,-0.6335877862595419,stand
1604241100.3459036,-0.0479736328125,0.970458984375,-0.2135009765625,1.366412213740458,-2.9389312977099236,-1.2366412213740459,stand
1604241100.3859036,-0.0562744140625,0.974365234375,-0.2288818359375,0.3282442748091603,-3.8396946564885495,-1.2595419847328244,stand
1604241100.4259036,-0.0631103515625,0.96875,-0.2161865234375,2.4198473282442747,-2.4885496183206106,-1.549618320610687,stand
1604241100.4659035,-0.0675048828125,0.970947265625,-0.2342529296875,-0.08396946564885496,-4.4961832061068705,0.48854961832061067,stand
1604241100.5059035,-0.0377197265625,0.965087890625,-0.2135009765625,1.6030534351145038,-5.6183206106870225,0.5114503816793893,stand
1604241100.5459034,-0.0421142578125,0.970947265625,-0.2249755859375,0.15267175572519084,-5.519083969465649,1.3740458015267176,stand
1604241100.5859034,-0.0640869140625,0.9765625,-0.2232666015625,-0.08396946564885496,-2.053435114503817,1.1297709923664123,stand
1604241100.6259034,-0.0518798828125,0.974365234375,-0.2261962890625,0.7709923664122137,-4.641221374045801,0.13740458015267176,stand
1604241100.6659033,-0.0416259765625,0.970703125,-0.2064208984375,0.9694656488549618,-3.5114503816793894,-0.08396946564885496,stand
1604241100.7059033,-0.0587158203125,0.978759765625,-0.2220458984375,1.3969465648854962,-2.717557251908397,0.24427480916030533,stand
1604241100.7459033,-0.0587158203125,0.96875,-0.2069091796875,1.1984732824427482,-3.114503816793893,-0.17557251908396945,stand
1604241100.7859032,-0.0452880859375,0.980224609375,-0.2073974609375,2.267175572519084,-4.251908396946565,0.33587786259541985,stand
1604241100.8259032,-0.0491943359375,0.975341796875,-0.2039794921875,0.366412213740458,-3.122137404580153,1.4274809160305344,stand
1604241100.8659031,-0.0653076171875,0.96337890625,-0.2266845703125,1.6946564885496183,-4.809160305343512,0.12213740458015267,stand
1604241100.905903,-0.0489501953125,0.975830078125,-0.2127685546875,2.0763358778625953,-2.732824427480916,-1.4351145038167938,stand
1604241100.945903,-0.0523681640625,0.976318359375,-0.2252197265625,0.5419847328244275,-3.312977099236641,-0.8244274809160306,stand
1604241100.985903,-0.0538330078125,0.97900390625,-0.2105712890625,1.3358778625954197,-3.3435114503816794,-0.9312977099236641,stand
1604241101.025903,-0.0643310546875,0.9658203125,-0.2381591796875,1.3435114503816794,-4.137404580152672,0.3435114503816794,stand
1604241101.065903,-0.0391845703125,0.97216796875,-0.2113037109375,1.5267175572519085,-3.9236641221374047,0.33587786259541985,stand
1604241101.105903,-0.0394287109375,0.966552734375,-0.2120361328125,1.7557251908396947,-2.9923664122137406,1.099236641221374,stand
1604241101.1459029,-0.0501708984375,0.974853515625,-0.2381591796875,1.5725190839694656,-5.404580152671755,1.6106870229007633,stand
1604241101.1859028,-0.0528564453125,0.9765625,-0.2130126953125,2.519083969465649,-7.076335877862595,0.366412213740458,stand
1604241101.2259028,-0.0235595703125,0.96875,-0.2435302734375,1.702290076335878,-6.1603053435114505,0.5801526717557252,stand
1604241101.2659028,-0.0186767578125,0.970458984375,-0.2266845703125,0.7709923664122137,-0.7099236641221374,0.5038167938931297,stand
1604241101.3059027,-0.0662841796875,0.967041015625,-0.2174072265625,0.8320610687022901,-1.816793893129771,0.05343511450381679,stand
1604241101.3459027,-0.0616455078125,0.97265625,-0.2061767578125,1.0916030534351144,-2.549618320610687,-0.10687022900763359,stand
1604241101.3859026,-0.0618896484375,0.969482421875,-0.2310791015625,0.6030534351145038,-1.1603053435114503,-0.48091603053435117,stand
1604241101.4259026,-0.0416259765625,0.9619140625,-0.2283935546875,0.8091603053435115,-3.2061068702290076,0.08396946564885496,stand
1604241101.4659026,-0.0472412109375,0.96923828125,-0.2193603515625,1.0381679389312977,1.916030534351145,0.5572519083969466,stand
1604241101.5059025,-0.0565185546875,0.980224609375,-0.2337646484375,0.8549618320610687,-2.8396946564885495,-0.3969465648854962,stand
1604241101.5459025,-0.0513916015625,0.97216796875,-0.2100830078125,-0.4198473282442748,-1.2366412213740459,-0.916030534351145,stand
1604241101.5859025,-0.0467529296875,0.976318359375,-0.2342529296875,0.25190839694656486,0.6106870229007634,-2.183206106870229,stand
1604241101.6259024,-0.0374755859375,0.97314453125,-0.2066650390625,0.2595419847328244,-0.48091603053435117,-1.2748091603053435,stand
1604241101.6659024,-0.0601806640625,0.96435546875,-0.2186279296875,1.7938931297709924,-2.687022900763359,-1.4580152671755726,stand
1604241101.7059023,-0.0572509765625,0.963623046875,-0.2301025390625,-0.6335877862595419,0.9465648854961832,-1.6946564885496183,stand
1604241101.7459023,-0.0606689453125,0.96435546875,-0.2159423828125,1.7786259541984732,-1.0229007633587786,-2.427480916030534,stand
1604241101.7859023,-0.0665283203125,0.970947265625,-0.2293701171875,0.12213740458015267,-1.0076335877862594,-2.0610687022900764,stand
1604241101.8259022,-0.0736083984375,0.970703125,-0.2139892578125,-0.7022900763358778,0.3816793893129771,-1.465648854961832,stand
1604241101.8659022,-0.0611572265625,0.969482421875,-0.2237548828125,0.4351145038167939,-0.7099236641221374,-2.0076335877862594,stand
1604241101.9059021,-0.0606689453125,0.979248046875,-0.2135009765625,0.3511450381679389,0.7480916030534351,-1.4045801526717556,stand
1604241101.945902,-0.0728759765625,0.969970703125,-0.2110595703125,-0.08396946564885496,1.1297709923664123,-3.8625954198473282,stand
1604241101.985902,-0.0699462890625,0.9677734375,-0.2283935546875,0.16030534351145037,1.0458015267175573,-1.8473282442748091,stand
1604241102.025902,-0.0755615234375,0.96728515625,-0.2242431640625,0.4198473282442748,-0.13740458015267176,-1.2442748091603053,stand
1604241102.065902,-0.0616455078125,0.969970703125,-0.2149658203125,-0.7022900763358778,1.366412213740458,-1.1984732824427482,stand
1604241102.105902,-0.0902099609375,0.969482421875,-0.2100830078125,-0.3816793893129771,3.267175572519084,-1.4809160305343512,stand
1604241102.145902,-0.0648193359375,0.977783203125,-0.2330322265625,-0.5801526717557252,1.816793893129771,-2.3587786259541983,stand
1604241102.1859019,-0.0850830078125,0.982177734375,-0.2076416015625,-0.16793893129770993,5.961832061068702,-3.6793893129770994,stand
1604241102.2259018,-0.0770263671875,0.981201171875,-0.1907958984375,-0.03816793893129771,2.435114503816794,-3.7709923664122136,stand
1604241102.2659018,-0.0819091796875,0.966552734375,-0.2154541015625,-0.6183206106870229,1.9923664122137406,-3.6030534351145036,stand
1604241102.3059018,-0.0872802734375,0.974365234375,-0.2327880859375,1.618320610687023,5.114503816793893,-5.229007633587786,stand
1604241102.3459017,-0.0687255859375,0.982666015625,-0.2313232421875,-0.9007633587786259,4.290076335877862,-5.221374045801527,stand
1604241102.3859017,-0.0870361328125,0.970458984375,-0.2110595703125,-1.3282442748091603,5.862595419847328,-5.778625954198473,stand
1604241102.4259017,-0.0821533203125,0.964599609375,-0.1883544921875,0.9694656488549618,4.885496183206107,-5.67175572519084,stand
1604241102.4659016,-0.1092529296875,0.969970703125,-0.2139892578125,0.2748091603053435,2.8931297709923665,-4.717557251908397,stand
1604241102.5059016,-0.0914306640625,0.968505859375,-0.1981201171875,1.0381679389312977,3.5419847328244276,-4.465648854961832,stand
1604241102.5459015,-0.0977783203125,0.955810546875,-0.2230224609375,2.068702290076336,2.854961832061069,-5.816793893129771,stand
1604241102.5859015,-0.1146240234375,0.963134765625,-0.2110595703125,-0.061068702290076333,6.717557251908397,-4.6183206106870225,stand
1604241102.6259015,-0.1380615234375,0.967041015625,-0.2000732421875,-0.04580152671755725,3.4427480916030535,-5.190839694656488,stand
1604241102.6659014,-0.1153564453125,0.967529296875,-0.2034912109375,0.8091603053435115,4.404580152671755,-6.0458015267175576,stand
1604241102.7059014,-0.1361083984375,0.960205078125,-0.2130126953125,1.4045801526717556,1.4045801526717556,-6.122137404580153,stand
1604241102.7459013,-0.1390380859375,0.976806640625,-0.2047119140625,-0.7862595419847328,-0.40458015267175573,-4.648854961832061,stand
1604241102.7859013,-0.1339111328125,0.96044921875,-0.2178955078125,0.6793893129770993,-2.1908396946564888,-4.885496183206107,stand
1604241102.8259013,-0.1239013671875,0.958251953125,-0.1995849609375,1.2213740458015268,-0.6641221374045801,-4.129770992366412,stand
1604241102.8659012,-0.1351318359375,0.962158203125,-0.2252197265625,1.9083969465648856,-4.7251908396946565,-3.312977099236641,stand
1604241102.9059012,-0.1461181640625,0.9609375,-0.2288818359375,-0.7022900763358778,-4.33587786259542,-1.3206106870229009,stand
1604241102.9459012,-0.1307373046875,0.983154296875,-0.2208251953125,1.786259541984733,-7.854961832061068,-1.450381679389313,stand
1604241102.985901,-0.1221923828125,0.962646484375,-0.2220458984375,0.8473282442748091,-5.229007633587786,-0.5648854961832062,stand
1604241103.025901,-0.1229248046875,0.95751953125,-0.2100830078125,2.7099236641221376,-8.068702290076336,-0.648854961832061,stand
1604241103.065901,-0.1446533203125,0.96142578125,-0.2100830078125,1.7633587786259541,-7.511450381679389,-0.46564885496183206,stand
1604241103.105901,-0.1119384765625,0.95361328125,-0.2220458984375,2.0076335877862594,-9.312977099236642,0.2748091603053435,stand
1604241103.145901,-0.1131591796875,0.960693359375,-0.2222900390625,0.183206106870229,-6.740458015267175,0.9541984732824428,stand
1604241103.185901,-0.1278076171875,0.96826171875,-0.2008056640625,-0.4580152671755725,-6.282442748091603,1.0076335877862594,stand
1604241103.225901,-0.1287841796875,0.939208984375,-0.2313232421875,-0.46564885496183206,-6.00763358778626,1.2366412213740459,stand
1604241103.2659009,-0.1119384765625,0.959716796875,-0.2130126953125,-1.5572519083969465,0.31297709923664124,0.2824427480916031,stand
1604241103.3059008,-0.1214599609375,0.968505859375,-0.1859130859375,0.4351145038167939,-0.6564885496183206,-0.29770992366412213,stand
1604241103.3459008,-0.1353759765625,0.965087890625,-0.2069091796875,0.061068702290076333,-0.3816793893129771,0.21374045801526717,stand
1604241103.3859007,-0.1295166015625,0.9677734375,-0.1947021484375,-0.11450381679389313,-1.8931297709923665,0.5343511450381679,stand
1604241103.4259007,-0.1253662109375,0.96435546875,-0.2073974609375,0.48854961832061067,-0.4351145038167939,-0.26717557251908397,stand
1604241103.4659007,-0.1253662109375,0.966064453125,-0.1968994140625,0.09923664122137404,0.9923664122137404,-0.7557251908396947,stand
1604241103.5059006,-0.1270751953125,0.962646484375,-0.1881103515625,0.3969465648854962,1.0534351145038168,-0.7862595419847328,stand
1604241103.5459006,-0.1307373046875,0.963134765625,-0.1881103515625,0.3435114503816794,-1.4122137404580153,-0.13740458015267176,stand
1604241103.5859005,-0.1300048828125,0.96728515625,-0.1976318359375,0.3435114503816794,0.5419847328244275,-1.1984732824427482,stand
1604241103.6259005,-0.1331787109375,0.96142578125,-0.2152099609375,0.549618320610687,1.6488549618320612,-1.6412213740458015,stand
1604241103.6659005,-0.1378173828125,0.972900390625,-0.2047119140625,0.5877862595419847,0.7786259541984732,-1.2748091603053435,stand
1604241103.7059004,-0.1221923828125,0.9658203125,-0.2178955078125,0.732824427480916,0.7786259541984732,-0.6564885496183206,stand
1604241103.7459004,-0.1290283203125,0.970947265625,-0.2113037109375,1.4885496183206106,-0.0916030534351145,-0.8320610687022901,stand
1604241103.7859004,-0.1361083984375,0.960693359375,-0.1903076171875,0.6564885496183206,2.015267175572519,-1.0763358778625953,stand
1604241103.8259003,-0.1353759765625,0.96435546875,-0.1978759765625,1.450381679389313,0.816793893129771,-1.381679389312977,stand
1604241103.8659003,-0.1556396484375,0.958740234375,-0.1956787109375,1.099236641221374,-0.03816793893129771,-0.648854961832061,stand
1604241103.9059002,-0.1383056640625,0.95458984375,-0.2139892578125,1.6030534351145038,-0.2366412213740458,-1.1221374045801527,stand
1604241103.9459002,-0.1470947265625,0.95361328125,-0.2086181640625,1.183206106870229,-0.31297709923664124,-1.1068702290076335,stand
1604241103.9859002,-0.1319580078125,0.97265625,-0.1981201171875,1.16793893129771,-1.8931297709923665,-1.4198473282442747,stand
1604241104.0259001,-0.1507568359375,0.95556640625,-0.2103271484375,0.9236641221374046,-2.351145038167939,-0.3511450381679389,stand
1604241104.0659,-0.1358642578125,0.959716796875,-0.2005615234375,1.5801526717557253,-0.9923664122137404,-0.8549618320610687,stand
1604241104.1059,-0.1497802734375,0.95654296875,-0.2161865234375,1.381679389312977,-2.282442748091603,-0.5190839694656488,stand
1604241104.1459,-0.1461181640625,0.955322265625,-0.1971435546875,0.9465648854961832,-2.0381679389312977,-0.40458015267175573,stand
1604241104.1859,-0.1507568359375,0.95556640625,-0.2115478515625,1.0458015267175573,-2.0763358778625953,-0.21374045801526717,stand
1604241104.2259,-0.1446533203125,0.964599609375,-0.2117919921875,0.4961832061068702,-2.3969465648854964,0.16793893129770993,stand
1604241104.2659,-0.1451416015625,0.95849609375,-0.2183837890625,1.1068702290076335,-3.2213740458015265,0.4580152671755725,stand
1604241104.3058999,-0.1453857421875,0.96923828125,-0.2066650390625,0.13740458015267176,-2.6106870229007635,0.4198473282442748,stand
1604241104.3458998,-0.1339111328125,0.958984375,-0.2042236328125,0.9923664122137404,-2.687022900763359,0.46564885496183206,stand
1604241104.3858998,-0.1448974609375,0.963623046875,-0.2144775390625,0.9083969465648855,-2.5267175572519083,0.04580152671755725,stand
1604241104.4258997,-0.1365966796875,0.961669921875,-0.2015380859375,0.7862595419847328,-3.0839694656488548,0.32061068702290074,stand
1604241104.4658997,-0.1331787109375,0.9697265625,-0.2020263671875,0.9694656488549618,-2.5267175572519083,0.8396946564885496,stand
1604241104.5058997,-0.1319580078125,0.960693359375,-0.2100830078125,0.8396946564885496,-2.6412213740458017,0.6870229007633588,stand
1604241104.5458996,-0.1553955078125,0.960205078125,-0.2183837890625,1.0458015267175573,-2.2748091603053435,0.4351145038167939,stand
1604241104.5858996,-0.1392822265625,0.9677734375,-0.1898193359375,0.6641221374045801,-2.519083969465649,0.5343511450381679,stand
1604241104.6258996,-0.1409912109375,0.949951171875,-0.1973876953125,1.083969465648855,-3.1908396946564888,0.29770992366412213,stand
1604241104.6658995,-0.1417236328125,0.96337890625,-0.2071533203125,0.8015267175572519,-3.236641221374046,0.4580152671755725,stand
1604241104.7058995,-0.1383056640625,0.958251953125,-0.2142333984375,0.9083969465648855,-2.2900763358778624,0.2900763358778626,stand
1604241104.7458994,-0.1414794921875,0.962646484375,-0.2061767578125,0.8244274809160306,-2.435114503816794,0.21374045801526717,stand
1604241104.7858994,-0.1324462890625,0.9609375,-0.2081298828125,0.6412213740458015,-2.946564885496183,0.5648854961832062,stand
1604241104.8258994,-0.1375732421875,0.958740234375,-0.2098388671875,0.732824427480916,-2.763358778625954,0.26717557251908397,stand
1604241104.8658993,-0.1373291015625,0.954345703125,-0.1966552734375,0.0916030534351145,-2.068702290076336,0.5190839694656488,stand
1604241104.9058993,-0.1380615234375,0.968505859375,-0.1973876953125,0.3435114503816794,-2.4427480916030535,0.15267175572519084,stand
1604241104.9458992,-0.1417236328125,0.96435546875,-0.2086181640625,0.19083969465648856,-1.0381679389312977,1.9389312977099236,stand
1604241104.9858992,-0.1405029296875,0.966064453125,-0.1968994140625,0.5877862595419847,-1.5801526717557253,-0.25190839694656486,stand
1604241105.0258992,-0.1307373046875,0.964111328125,-0.2030029296875,0.4198473282442748,-1.6717557251908397,0.015267175572519083,stand
1604241105.0658991,-0.1302490234375,0.968505859375,-0.2103271484375,0.5190839694656488,-1.0305343511450382,0.04580152671755725,stand
1604241105.105899,-0.1348876953125,0.96240234375,-0.1959228515625,0.5648854961832062,-1.2900763358778626,0.5801526717557252,stand
1604241105.145899,-0.1400146484375,0.959716796875,-0.1954345703125,0.20610687022900764,-1.5038167938931297,0.4122137404580153,stand
1604241105.185899,-0.1385498046875,0.968017578125,-0.2078857421875,0.6030534351145038,-0.5267175572519084,0.07633587786259542,stand
1604241105.225899,-0.1348876953125,0.965087890625,-0.1961669921875,0.6030534351145038,-0.9694656488549618,0.22137404580152673,stand
1604241105.265899,-0.1258544921875,0.967529296875,-0.1910400390625,0.6946564885496184,-1.3740458015267176,0.2824427480916031,stand
1604241105.305899,-0.1317138671875,0.96484375,-0.2108154296875,0.5801526717557252,-1.4427480916030535,0.44274809160305345,stand
1604241105.3458989,-0.1268310546875,0.9609375,-0.2139892578125,0.5725190839694656,-0.42748091603053434,0.2748091603053435,stand
1604241105.3858988,-0.1373291015625,0.9638671875,-0.2166748046875,0.8396946564885496,-0.5725190839694656,0.4580152671755725,stand
1604241105.4258988,-0.1297607421875,0.96240234375,-0.1968994140625,0.9618320610687023,-1.0534351145038168,0.22137404580152673,stand
1604241105.4658988,-0.1309814453125,0.9697265625,-0.1898193359375,0.8473282442748091,-0.4961832061068702,0.42748091603053434,stand
1604241105.5058987,-0.1309814453125,0.982177734375,-0.2017822265625,0.5114503816793893,-0.7175572519083969,0.40458015267175573,stand
1604241105.5458987,-0.1385498046875,0.96826171875,-0.2093505859375,0.7251908396946565,-1.2213740458015268,0.48854961832061067,stand
1604241105.5858986,-0.1378173828125,0.964599609375,-0.2032470703125,0.8778625954198473,-2.49618320610687,0.46564885496183206,stand
1604241105.6258986,-0.1268310546875,0.964111328125,-0.2052001953125,0.7709923664122137,-2.122137404580153,0.6412213740458015,stand
1604241105.6658986,-0.1365966796875,0.965087890625,-0.2076416015625,0.6793893129770993,-2.3435114503816794,0.549618320610687,stand
1604241105.7058985,-0.1307373046875,0.96044921875,-0.2130126953125,0.37404580152671757,-1.4122137404580153,0.46564885496183206,stand
1604241105.7458985,-0.1312255859375,0.96337890625,-0.2012939453125,0.22900763358778625,-1.1145038167938932,0.15267175572519084,stand
1604241105.7858984,-0.1322021484375,0.9658203125,-0.2034912109375,0.25190839694656486,0.5114503816793893,0.06870229007633588,stand
1604241105.8258984,-0.1356201171875,0.970703125,-0.2003173828125,0.16030534351145037,1.9236641221374047,0.48854961832061067,stand
1604241105.8658984,-0.1334228515625,0.965087890625,-0.1895751953125,-0.022900763358778626,0.2748091603053435,0.549618320610687,stand
1604241105.9058983,-0.1341552734375,0.967041015625,-0.1912841796875,-0.1450381679389313,-0.04580152671755725,0.549618320610687,stand
1604241105.9458983,-0.1307373046875,0.9599609375,-0.1983642578125,-0.061068702290076333,-0.12213740458015267,0.20610687022900764,stand
1604241105.9858983,-0.1336669921875,0.960205078125,-0.1934814453125,0.1984732824427481,-0.5038167938931297,0.04580152671755725,stand
1604241106.0258982,-0.1268310546875,0.967041015625,-0.1895751953125,0.0916030534351145,-1.3282442748091603,0.35877862595419846,stand
1604241106.0658982,-0.1243896484375,0.96044921875,-0.2010498046875,0.022900763358778626,-0.1297709923664122,0.4580152671755725,stand
1604241106.1058981,-0.1387939453125,0.968994140625,-0.2008056640625,0.1984732824427481,-3.267175572519084,1.0458015267175573,stand
1604241106.145898,-0.1190185546875,0.96435546875,-0.2030029296875,0.3282442748091603,-0.5038167938931297,0.8778625954198473,stand
1604241106.185898,-0.1182861328125,0.98193359375,-0.1885986328125,0.24427480916030533,-0.6183206106870229,0.22900763358778625,stand
1604241106.225898,-0.1214599609375,0.964111328125,-0.2030029296875,0.0916030534351145,1.633587786259542,-0.2366412213740458,stand
1604241106.265898,-0.1258544921875,0.955322265625,-0.1883544921875,0.4198473282442748,0.22137404580152673,-0.48854961832061067,stand
1604241106.305898,-0.1256103515625,0.96337890625,-0.1912841796875,0.6641221374045801,0.16030534351145037,-0.09923664122137404,stand
1604241106.345898,-0.1383056640625,0.970703125,-0.1927490234375,0.8244274809160306,-0.16030534351145037,0.07633587786259542,stand
1604241106.3858979,-0.1390380859375,0.955078125,-0.1912841796875,0.6183206106870229,0.4732824427480916,0.2824427480916031,stand
1604241106.4258978,-0.1309814453125,0.981689453125,-0.1917724609375,0.7404580152671756,-1.0,0.1450381679389313,stand
1604241106.4658978,-0.1204833984375,0.963623046875,-0.1973876953125,0.6106870229007634,0.8854961832061069,-0.03816793893129771,stand
1604241106.5058978,-0.1312255859375,0.9658203125,-0.1815185546875,1.1221374045801527,0.26717557251908397,-0.7557251908396947,stand
1604241106.5458977,-0.1304931640625,0.964599609375,-0.1925048828125,0.8931297709923665,1.2366412213740459,-0.7938931297709924,stand
1604241106.5858977,-0.1295166015625,0.96484375,-0.1861572265625,0.9236641221374046,0.9923664122137404,-0.7709923664122137,stand
1604241106.6258976,-0.1375732421875,0.96923828125,-0.1998291015625,0.9236641221374046,0.5725190839694656,-0.4122137404580153,stand
1604241106.6658976,-0.1292724609375,0.969970703125,-0.1812744140625,1.3511450381679388,0.9694656488549618,-0.40458015267175573,stand
1604241106.7058976,-0.1317138671875,0.975341796875,-0.2027587890625,1.1526717557251909,0.007633587786259542,-0.06870229007633588,stand
1604241106.7458975,-0.1204833984375,0.9658203125,-0.1827392578125,1.3358778625954197,1.3206106870229009,-0.13740458015267176,stand
1604241106.7858975,-0.1322021484375,0.96435546875,-0.2039794921875,1.6946564885496183,-0.09923664122137404,0.16793893129770993,stand
1604241106.8258975,-0.1282958984375,0.97314453125,-0.1895751953125,0.9694656488549618,0.2900763358778626,-0.10687022900763359,stand
1604241106.8658974,-0.1346435546875,0.968505859375,-0.1912841796875,1.4198473282442747,0.5648854961832062,-0.6259541984732825,stand
1604241106.9058974,-0.1402587890625,0.957763671875,-0.1824951171875,1.4885496183206106,0.2900763358778626,-1.9312977099236641,stand
1604241106.9458973,-0.1434326171875,0.968505859375,-0.1832275390625,1.5267175572519085,-0.4580152671755725,-0.5572519083969466,stand
1604241106.9858973,-0.1297607421875,0.959716796875,-0.1885986328125,1.3206106870229009,-1.3969465648854962,-0.17557251908396945,stand
1604241107.0258973,-0.1292724609375,0.9638671875,-0.2017822265625,1.916030534351145,-1.0534351145038168,-0.2824427480916031,stand
1604241107.0658972,-0.1273193359375,0.955078125,-0.1881103515625,1.1526717557251909,-1.3358778625954197,0.015267175572519083,stand
1604241107.1058972,-0.1146240234375,0.982421875,-0.1878662109375,1.816793893129771,-0.7786259541984732,-0.16793893129770993,stand
1604241107.1458972,-0.1143798828125,0.967041015625,-0.2159423828125,1.3740458015267176,0.21374045801526717,-0.4198473282442748,stand
1604241107.185897,-0.1319580078125,0.98291015625,-0.2042236328125,2.0,-0.5114503816793893,0.03816793893129771,stand
1604241107.225897,-0.1278076171875,0.963623046875,-0.2161865234375,1.786259541984733,-1.7938931297709924,0.6641221374045801,stand
1604241107.265897,-0.1207275390625,0.95947265625,-0.2110595703125,2.236641221374046,-1.4580152671755726,0.4732824427480916,stand
1604241107.305897,-0.1365966796875,0.959716796875,-0.1898193359375,0.022900763358778626,-1.2748091603053435,0.7709923664122137,stand
1604241107.345897,-0.1358642578125,0.961181640625,-0.1878662109375,1.8396946564885497,-2.6259541984732824,0.366412213740458,stand
1604241107.385897,-0.1275634765625,0.972412109375,-0.2125244140625,0.030534351145038167,-2.7557251908396947,0.5801526717557252,stand
1604241107.425897,-0.1270751953125,0.964111328125,-0.2054443359375,0.030534351145038167,-3.4198473282442747,0.6946564885496184,stand
1604241107.4658968,-0.1363525390625,0.962646484375,-0.2071533203125,1.5725190839694656,-3.786259541984733,0.9465648854961832,stand
1604241107.5058968,-0.1295166015625,0.9638671875,-0.2122802734375,1.5954198473282444,-4.061068702290076,0.8854961832061069,stand
1604241107.5458968,-0.1177978515625,0.96142578125,-0.2100830078125,1.251908396946565,-2.763358778625954,0.6106870229007634,stand
1604241107.5858967,-0.1226806640625,0.96044921875,-0.2120361328125,1.1374045801526718,-1.3511450381679388,0.16793893129770993,stand
1604241107.6258967,-0.1260986328125,0.961669921875,-0.2000732421875,0.8015267175572519,-1.6870229007633588,0.0,stand
1604241107.6658967,-0.1168212890625,0.963623046875,-0.2203369140625,0.7786259541984732,-0.648854961832061,-0.007633587786259542,stand
1604241107.7058966,-0.1214599609375,0.96142578125,-0.2132568359375,0.4580152671755725,-1.4045801526717556,0.06870229007633588,stand
1604241107.7458966,-0.1239013671875,0.9638671875,-0.2108154296875,0.9083969465648855,0.1984732824427481,-0.3969465648854962,stand
1604241107.7858965,-0.1156005859375,0.954345703125,-0.2135009765625,0.21374045801526717,-1.213740458015267,0.12213740458015267,stand
1604241107.8258965,-0.1368408203125,0.966796875,-0.1993408203125,0.816793893129771,0.030534351145038167,-0.2900763358778626,stand
1604241107.8658965,-0.1390380859375,0.967041015625,-0.2130126953125,0.5877862595419847,-0.31297709923664124,0.15267175572519084,stand
1604241107.9058964,-0.1363525390625,0.961181640625,-0.2178955078125,0.5419847328244275,-1.8091603053435115,-0.29770992366412213,stand
1604241107.9458964,-0.1314697265625,0.9638671875,-0.1917724609375,0.6259541984732825,-1.1526717557251909,-0.7633587786259542,stand
1604241107.9858963,-0.1170654296875,0.96484375,-0.2132568359375,0.648854961832061,-0.7557251908396947,-0.732824427480916,stand
1604241108.0258963,-0.1397705078125,0.970947265625,-0.1885986328125,0.7022900763358778,-0.6870229007633588,-1.0076335877862594,stand
1604241108.0658963,-0.1285400390625,0.9609375,-0.2076416015625,0.0,-1.213740458015267,-0.3969465648854962,stand
1604241108.1058962,-0.1207275390625,0.96630859375,-0.2022705078125,0.5572519083969466,0.15267175572519084,-0.9847328244274809,stand
1604241108.1458962,-0.1319580078125,0.962646484375,-0.2183837890625,0.12213740458015267,0.0,-0.8549618320610687,stand
1604241108.1858962,-0.1295166015625,0.964599609375,-0.1973876953125,0.7633587786259542,0.007633587786259542,-0.8396946564885496,stand
1604241108.2258961,-0.1343994140625,0.955078125,-0.2100830078125,0.37404580152671757,-0.3435114503816794,-0.40458015267175573,stand
1604241108.265896,-0.1397705078125,0.962158203125,-0.1947021484375,0.549618320610687,-1.4732824427480915,-0.1984732824427481,stand
1604241108.305896,-0.1339111328125,0.963623046875,-0.2025146484375,0.732824427480916,-1.2595419847328244,-0.5267175572519084,stand
1604241108.345896,-0.1358642578125,0.965087890625,-0.2032470703125,0.7786259541984732,-2.1374045801526718,-0.2595419847328244,stand
1604241108.385896,-0.1317138671875,0.966064453125,-0.2015380859375,0.7480916030534351,-1.8091603053435115,-0.7938931297709924,stand
1604241108.425896,-0.1258544921875,0.962158203125,-0.1990966796875,0.648854961832061,-1.2900763358778626,-0.48091603053435117,stand
1604241108.465896,-0.1322021484375,0.96630859375,-0.2020263671875,0.7480916030534351,-1.9541984732824427,-0.5038167938931297,stand
1604241108.5058959,-0.1292724609375,0.964111328125,-0.2056884765625,0.6106870229007634,-1.015267175572519,-0.5038167938931297,stand
1604241108.5458958,-0.1287841796875,0.9638671875,-0.2030029296875,1.213740458015267,-0.42748091603053434,-0.6412213740458015,stand
1604241108.5858958,-0.1343994140625,0.969970703125,-0.1988525390625,0.7404580152671756,0.1984732824427481,1.916030534351145,stand
1604241108.6258957,-0.1322021484375,0.98291015625,-0.2081298828125,1.0916030534351144,-0.9541984732824428,-0.48854961832061067,stand
1604241108.6658957,-0.1336669921875,0.960205078125,-0.1973876953125,0.7175572519083969,-0.7709923664122137,-0.061068702290076333,stand
1604241108.7058957,-0.1343994140625,0.96533203125,-0.2147216796875,1.4580152671755726,-0.4122137404580153,-0.7633587786259542,stand
1604241108.7458956,-0.1378173828125,0.971923828125,-0.2122802734375,0.6259541984732825,-0.29770992366412213,-0.16793893129770993,stand
1604241108.7858956,-0.1319580078125,0.968505859375,-0.2030029296875,1.0076335877862594,-0.6717557251908397,-0.0916030534351145,stand
1604241108.8258955,-0.1387939453125,0.964111328125,-0.1890869140625,1.1984732824427482,1.9465648854961832,-0.015267175572519083,stand
1604241108.8658955,-0.1292724609375,0.968505859375,-0.1888427734375,1.0687022900763359,-0.2824427480916031,0.015267175572519083,stand
1604241108.9058955,-0.1353759765625,0.963623046875,-0.1973876953125,0.7786259541984732,-1.1908396946564885,0.1984732824427481,stand
1604241108.9458954,-0.1395263671875,0.963623046875,-0.2181396484375,1.4274809160305344,0.32061068702290074,-0.366412213740458,stand
1604241108.9858954,-0.1385498046875,0.964599609375,-0.1951904296875,0.8702290076335878,-0.7862595419847328,-0.12213740458015267,stand
1604241109.0258954,-0.1353759765625,0.964599609375,-0.1890869140625,1.2213740458015268,-0.45038167938931295,-0.16793893129770993,stand
1604241109.0658953,-0.1348876953125,0.9599609375,-0.2127685546875,1.2213740458015268,-2.885496183206107,0.3969465648854962,stand
1604241109.1058953,-0.1282958984375,0.96044921875,-0.2147216796875,1.3053435114503817,-0.32061068702290074,1.8931297709923665,stand
1604241109.1458952,-0.1370849609375,0.959228515625,-0.2010498046875,1.3206106870229009,-1.7328244274809161,-1.900763358778626,stand
1604241109.1858952,-0.1217041015625,0.965087890625,-0.1968994140625,0.8931297709923665,-0.13740458015267176,-0.007633587786259542,stand
1604241109.2258952,-0.1292724609375,0.962158203125,-0.2135009765625,1.3129770992366412,-0.9618320610687023,0.022900763358778626,stand
1604241109.2658951,-0.1324462890625,0.9638671875,-0.2020263671875,1.183206106870229,-0.1297709923664122,0.22900763358778625,stand
1604241109.305895,-0.1383056640625,0.9619140625,-0.2095947265625,1.015267175572519,-1.5190839694656488,0.5648854961832062,stand
1604241109.345895,-0.1324462890625,0.956787109375,-0.1986083984375,1.0229007633587786,-1.8549618320610688,0.7404580152671756,stand
1604241109.385895,-0.1317138671875,0.965087890625,-0.2169189453125,1.0610687022900764,-1.4274809160305344,0.648854961832061,stand
1604241109.425895,-0.1324462890625,0.95849609375,-0.2152099609375,0.8931297709923665,-1.0305343511450382,0.7938931297709924,stand
1604241109.465895,-0.1304931640625,0.961181640625,-0.2237548828125,1.0458015267175573,-1.1068702290076335,0.5267175572519084,stand
1604241109.505895,-0.1256103515625,0.96142578125,-0.2066650390625,0.8854961832061069,-1.0,0.6412213740458015,stand
1604241109.5458949,-0.1331787109375,0.967041015625,-0.2032470703125,1.0610687022900764,-0.4198473282442748,0.6793893129770993,stand
1604241109.5858948,-0.1334228515625,0.96240234375,-0.2066650390625,0.8396946564885496,-2.3206106870229006,0.8244274809160306,stand
1604241109.6258948,-0.1217041015625,0.96337890625,-0.1932373046875,0.8473282442748091,-1.083969465648855,0.8320610687022901,stand
1604241109.6658947,-0.1124267578125,0.9638671875,-0.2115478515625,2.49618320610687,-1.4122137404580153,-1.8473282442748091,stand
1604241109.7058947,-0.1221923828125,0.956787109375,-0.2042236328125,1.1984732824427482,-1.4351145038167938,0.8396946564885496,stand
1604241109.7458947,-0.1256103515625,0.953857421875,-0.2054443359375,0.7251908396946565,-1.6717557251908397,1.0916030534351144,stand
1604241109.7858946,-0.1282958984375,0.962158203125,-0.2169189453125,0.1450381679389313,-1.5267175572519085,1.534351145038168,stand
1604241109.8258946,-0.1280517578125,0.96923828125,-0.1890869140625,0.9465648854961832,-1.3358778625954197,0.7251908396946565,stand
1604241109.8658946,-0.1351318359375,0.957275390625,-0.1959228515625,0.366412213740458,-1.3740458015267176,0.4351145038167939,stand
1604241109.9058945,-0.1265869140625,0.96728515625,-0.2100830078125,0.8778625954198473,-0.9618320610687023,-0.2748091603053435,stand
1604241109.9458945,-0.1319580078125,0.9609375,-0.2000732421875,1.099236641221374,-1.900763358778626,0.12213740458015267,stand
1604241109.9858944,-0.1239013671875,0.963134765625,-0.2000732421875,1.2442748091603053,-1.5877862595419847,-0.09923664122137404,stand
1604241110.0258944,-0.1326904296875,0.96728515625,-0.2086181640625,0.6564885496183206,-1.916030534351145,0.2900763358778626,stand
1604241110.0658944,-0.1246337890625,0.959716796875,-0.2076416015625,1.015267175572519,-0.7786259541984732,1.9083969465648856,stand
1604241110.1058943,-0.1314697265625,0.96533203125,-0.2059326171875,0.7938931297709924,-1.465648854961832,0.0,stand
1604241110.1458943,-0.1229248046875,0.963623046875,-0.2008056640625,0.9007633587786259,-1.3511450381679388,-1.9236641221374047,stand
1604241110.1858943,-0.1219482421875,0.96337890625,-0.2181396484375,1.1450381679389312,-0.11450381679389313,-0.31297709923664124,stand
1604241110.2258942,-0.1351318359375,0.96142578125,-0.2066650390625,0.6793893129770993,-0.9389312977099237,0.3282442748091603,stand
1604241110.2658942,-0.1134033203125,0.9814453125,-0.2091064453125,1.5801526717557253,-1.2061068702290076,0.33587786259541985,stand
1604241110.3058941,-0.1317138671875,0.9599609375,-0.2069091796875,0.8778625954198473,-0.8244274809160306,0.15267175572519084,stand
1604241110.345894,-0.1287841796875,0.96240234375,-0.1981201171875,0.9694656488549618,-1.0687022900763359,0.20610687022900764,stand
1604241110.385894,-0.1246337890625,0.96728515625,-0.2186279296875,1.1297709923664123,-1.3587786259541985,0.366412213740458,stand
1604241110.425894,-0.1207275390625,0.961181640625,-0.2105712890625,0.9465648854961832,-1.7786259541984732,0.6030534351145038,stand
1604241110.465894,-0.1312255859375,0.962646484375,-0.2095947265625,1.3435114503816794,-1.6946564885496183,0.4351145038167939,stand
1604241110.505894,-0.1297607421875,0.96240234375,-0.2054443359375,1.183206106870229,-1.7099236641221374,0.5725190839694656,stand
1604241110.545894,-0.1256103515625,0.96728515625,-0.2020263671875,1.3969465648854962,-1.9236641221374047,0.4351145038167939,stand
1604241110.5858939,-0.1287841796875,0.965087890625,-0.2174072265625,0.7938931297709924,-0.9465648854961832,0.46564885496183206,stand
1604241110.6258938,-0.1104736328125,0.965087890625,-0.2156982421875,1.3282442748091603,-1.4274809160305344,0.3282442748091603,stand
1604241110.6658938,-0.1307373046875,0.95166015625,-0.2076416015625,1.099236641221374,-1.786259541984733,0.5038167938931297,stand
1604241110.7058938,-0.1239013671875,0.960693359375,-0.2122802734375,1.0076335877862594,-1.7709923664122138,0.5114503816793893,stand
1604241110.7458937,-0.1246337890625,0.960693359375,-0.2232666015625,0.916030534351145,-2.946564885496183,0.07633587786259542,stand
1604241110.7858937,-0.1368408203125,0.964599609375,-0.2061767578125,1.3053435114503817,-2.854961832061069,0.13740458015267176,stand
1604241110.8258936,-0.1402587890625,0.95947265625,-0.2086181640625,1.3358778625954197,-3.282442748091603,-0.5725190839694656,stand
1604241110.8658936,-0.1204833984375,0.964599609375,-0.1990966796875,0.6793893129770993,-1.16793893129771,-0.48854961832061067,stand
1604241110.9058936,-0.1300048828125,0.966064453125,-0.2110595703125,0.816793893129771,-2.5114503816793894,-0.6793893129770993,stand
1604241110.9458935,-0.1231689453125,0.962158203125,-0.2078857421875,0.26717557251908397,-2.068702290076336,0.061068702290076333,stand
1604241110.9858935,-0.0992431640625,0.96728515625,-0.2169189453125,0.3893129770992366,-1.450381679389313,0.42748091603053434,stand
1604241111.0258934,-0.1170654296875,0.9658203125,-0.2083740234375,0.35877862595419846,-1.1450381679389312,1.5801526717557253,stand
1604241111.0658934,-0.1248779296875,0.96240234375,-0.2095947265625,0.8931297709923665,-1.6106870229007633,1.0763358778625953,stand
1604241111.1058934,-0.1151123046875,0.962890625,-0.2130126953125,0.7709923664122137,-3.763358778625954,1.2061068702290076,stand
1604241111.1458933,-0.1392822265625,0.9619140625,-0.2083740234375,0.7633587786259542,-1.6412213740458015,0.9541984732824428,stand
1604241111.1858933,-0.1258544921875,0.954833984375,-0.2127685546875,0.7633587786259542,-2.50381679389313,0.8549618320610687,stand
1604241111.2258933,-0.1212158203125,0.965576171875,-0.1976318359375,1.0916030534351144,-3.2595419847328246,0.6717557251908397,stand
1604241111.2658932,-0.1114501953125,0.9638671875,-0.2061767578125,0.6641221374045801,-2.3740458015267176,0.31297709923664124,stand
1604241111.3058932,-0.1173095703125,0.960693359375,-0.2330322265625,1.0381679389312977,-1.4809160305343512,0.17557251908396945,stand
1604241111.3458931,-0.1182861328125,0.9619140625,-0.2037353515625,0.8015267175572519,-1.5572519083969465,0.25190839694656486,stand
1604241111.385893,-0.1221923828125,0.968017578125,-0.2103271484375,0.6412213740458015,-2.7709923664122136,-0.022900763358778626,stand
1604241111.425893,-0.1124267578125,0.96337890625,-0.2020263671875,0.44274809160305345,-2.3206106870229006,-0.0916030534351145,stand
1604241111.465893,-0.1168212890625,0.968017578125,-0.2064208984375,0.24427480916030533,-1.549618320610687,-0.4122137404580153,stand
1604241111.505893,-0.1243896484375,0.96630859375,-0.2059326171875,0.3435114503816794,-1.1068702290076335,-0.48091603053435117,stand
1604241111.545893,-0.1156005859375,0.963134765625,-0.2161865234375,0.4122137404580153,-2.381679389312977,0.4122137404580153,stand
1604241111.585893,-0.1121826171875,0.9755859375,-0.2156982421875,0.5648854961832062,-1.8015267175572518,0.4961832061068702,stand
1604241111.6258929,-0.1082763671875,0.9677734375,-0.2103271484375,0.6183206106870229,-1.8396946564885497,0.7251908396946565,stand
1604241111.6658928,-0.1116943359375,0.96435546875,-0.2044677734375,0.3893129770992366,-1.6641221374045803,0.9083969465648855,stand
1604241111.7058928,-0.1087646484375,0.965087890625,-0.2169189453125,0.7938931297709924,-0.9618320610687023,0.9694656488549618,stand
1604241111.7458928,-0.1160888671875,0.967529296875,-0.1956787109375,0.7938931297709924,-0.9541984732824428,0.6106870229007634,stand
1604241111.7858927,-0.1209716796875,0.964111328125,-0.2069091796875,0.48854961832061067,-1.1068702290076335,0.22137404580152673,stand
1604241111.8258927,-0.0975341796875,0.972412109375,-0.2083740234375,0.5648854961832062,-1.099236641221374,0.15267175572519084,stand
1604241111.8658926,-0.1241455078125,0.982666015625,-0.2049560546875,0.5877862595419847,0.4198473282442748,0.16793893129770993,stand
1604241111.9058926,-0.1246337890625,0.963623046875,-0.2059326171875,0.7251908396946565,-1.3206106870229009,0.40458015267175573,stand
1604241111.9458926,-0.1153564453125,0.9658203125,-0.2174072265625,0.4580152671755725,-0.3511450381679389,0.4198473282442748,stand
1604241111.9858925,-0.1163330078125,0.963134765625,-0.1959228515625,0.8625954198473282,-0.24427480916030533,0.15267175572519084,stand
1604241112.0258925,-0.1151123046875,0.962646484375,-0.2037353515625,0.9389312977099237,-0.7099236641221374,0.16793893129770993,stand
1604241112.0658925,-0.1190185546875,0.96435546875,-0.2020263671875,0.8473282442748091,-1.0458015267175573,-0.07633587786259542,stand
1604241112.1058924,-0.1153564453125,0.958984375,-0.2149658203125,0.7480916030534351,-0.3053435114503817,-0.5190839694656488,stand
1604241112.1458924,-0.1175537109375,0.970947265625,-0.2127685546875,0.8091603053435115,-0.6106870229007634,-0.6183206106870229,stand
1604241112.1858923,-0.1102294921875,0.959716796875,-0.2066650390625,0.9236641221374046,-0.5343511450381679,-0.40458015267175573,stand
1604241112.2258923,-0.1075439453125,0.970703125,-0.2081298828125,0.9770992366412213,-0.4732824427480916,-0.1450381679389313,stand
1604241112.2658923,-0.1112060546875,0.96728515625,-0.2125244140625,1.0381679389312977,-0.9312977099236641,0.16793893129770993,stand
1604241112.3058922,-0.1175537109375,0.968994140625,-0.1990966796875,1.1603053435114503,0.7022900763358778,-0.7938931297709924,stand
1604241112.3458922,-0.1234130859375,0.9599609375,-0.2022705078125,0.4580152671755725,-0.8854961832061069,-0.5801526717557252,stand
1604241112.3858922,-0.1168212890625,0.96728515625,-0.1961669921875,1.1603053435114503,1.0,-1.4045801526717556,stand
1604241112.425892,-0.1195068359375,0.963134765625,-0.2037353515625,0.8931297709923665,-0.3969465648854962,-0.6793893129770993,stand
1604241112.465892,-0.1195068359375,0.970947265625,-0.2073974609375,1.297709923664122,0.26717557251908397,-0.8702290076335878,stand
1604241112.505892,-0.1170654296875,0.96337890625,-0.2056884765625,1.0916030534351144,-0.916030534351145,1.9236641221374047,stand
1604241112.545892,-0.1214599609375,0.956787109375,-0.1978759765625,1.2290076335877862,0.06870229007633588,-0.07633587786259542,stand
1604241112.585892,-0.1114501953125,0.964599609375,-0.2054443359375,1.4122137404580153,-1.5725190839694656,0.3282442748091603,stand
1604241112.625892,-0.1195068359375,0.966552734375,-0.2052001953125,1.2366412213740459,-1.4809160305343512,0.40458015267175573,stand
1604241112.665892,-0.1351318359375,0.96240234375,-0.2113037109375,1.5572519083969465,-1.0534351145038168,-0.5648854961832062,stand
1604241112.7058918,-0.1124267578125,0.962646484375,-0.2037353515625,0.8091603053435115,0.22900763358778625,-0.9923664122137404,stand
1604241112.7458918,-0.1380615234375,0.97314453125,-0.2113037109375,1.213740458015267,-0.48854961832061067,-1.1145038167938932,stand
1604241112.7858918,-0.1170654296875,0.968017578125,-0.2064208984375,1.1755725190839694,0.24427480916030533,-0.7862595419847328,stand
1604241112.8258917,-0.1158447265625,0.962158203125,-0.2125244140625,1.099236641221374,-1.1145038167938932,-0.2900763358778626,stand
1604241112.8658917,-0.1214599609375,0.9619140625,-0.2091064453125,1.0381679389312977,-1.0534351145038168,0.13740458015267176,stand
1604241112.9058917,-0.1187744140625,0.96484375,-0.2144775390625,0.8396946564885496,-1.7251908396946565,0.366412213740458,stand
1604241112.9458916,-0.1265869140625,0.961181640625,-0.2125244140625,1.2061068702290076,-0.8091603053435115,-0.549618320610687,stand
1604241112.9858916,-0.1219482421875,0.95947265625,-0.2315673828125,1.1145038167938932,-0.8244274809160306,-0.2366412213740458,stand
1604241113.0258915,-0.1207275390625,0.970703125,-0.2091064453125,0.8396946564885496,-0.1984732824427481,-0.4580152671755725,stand
1604241113.0658915,-0.1151123046875,0.96240234375,-0.2220458984375,0.816793893129771,-0.45038167938931295,-1.9312977099236641,stand
1604241113.1058915,-0.1204833984375,0.9638671875,-0.2086181640625,0.916030534351145,-0.26717557251908397,0.2366412213740458,stand
1604241113.1458914,-0.1260986328125,0.96240234375,-0.2093505859375,0.9694656488549618,-0.11450381679389313,0.17557251908396945,stand
1604241113.1858914,-0.1356201171875,0.9541015625,-0.2066650390625,1.015267175572519,-1.1221374045801527,0.13740458015267176,stand
1604241113.2258914,-0.1290283203125,0.959228515625,-0.2127685546875,0.8320610687022901,-2.198473282442748,0.42748091603053434,stand
1604241113.2658913,-0.1297607421875,0.961669921875,-0.2066650390625,0.8931297709923665,-1.8244274809160306,0.2366412213740458,stand
1604241113.3058913,-0.1251220703125,0.9619140625,-0.2037353515625,0.7938931297709924,-1.6488549618320612,-0.03816793893129771,stand
1604241113.3458912,-0.1241455078125,0.96044921875,-0.2115478515625,0.7709923664122137,-0.8396946564885496,0.022900763358778626,stand
1604241113.3858912,-0.1221923828125,0.965576171875,-0.2147216796875,0.8702290076335878,-0.48854961832061067,0.25190839694656486,stand
1604241113.4258912,-0.1287841796875,0.960693359375,-0.2061767578125,0.8473282442748091,-1.4809160305343512,0.26717557251908397,stand
1604241113.4658911,-0.1280517578125,0.962646484375,-0.2059326171875,0.5038167938931297,-1.618320610687023,0.09923664122137404,stand
1604241113.505891,-0.1180419921875,0.959228515625,-0.2061767578125,0.8320610687022901,-1.7251908396946565,0.31297709923664124,stand
1604241113.545891,-0.1180419921875,0.970947265625,-0.1883544921875,0.9618320610687023,-0.6335877862595419,0.5190839694656488,stand
1604241113.585891,-0.1390380859375,0.9638671875,-0.2171630859375,0.4961832061068702,-2.145038167938931,0.8320610687022901,stand
1604241113.625891,-0.1202392578125,0.967041015625,-0.2122802734375,0.9770992366412213,-1.2900763358778626,0.7633587786259542,stand
1604241113.665891,-0.1195068359375,0.966552734375,-0.2117919921875,1.1374045801526718,-1.7938931297709924,0.7709923664122137,stand
1604241113.705891,-0.1182861328125,0.96533203125,-0.2037353515625,0.6564885496183206,-1.786259541984733,1.083969465648855,stand
1604241113.7458909,-0.1177978515625,0.9814453125,-0.2137451171875,1.0610687022900764,-1.5114503816793894,0.8854961832061069,stand
1604241113.7858908,-0.1197509765625,0.957275390625,-0.2061767578125,0.5954198473282443,-1.4580152671755726,0.7022900763358778,stand
1604241113.8258908,-0.1265869140625,0.96630859375,-0.2154541015625,1.5801526717557253,-1.549618320610687,0.35877862595419846,stand
1604241113.8658907,-0.1195068359375,0.96484375,-0.2076416015625,1.0916030534351144,-1.8244274809160306,0.48854961832061067,stand
1604241113.9058907,-0.1165771484375,0.96142578125,-0.2044677734375,0.7633587786259542,-1.6717557251908397,0.42748091603053434,stand
1604241113.9458907,-0.1112060546875,0.960693359375,-0.2132568359375,1.0381679389312977,-0.9618320610687023,0.32061068702290074,stand
1604241113.9858906,-0.1153564453125,0.97119140625,-0.1993408203125,0.6793893129770993,-2.1068702290076335,0.08396946564885496,stand
1604241114.0258906,-0.1148681640625,0.961181640625,-0.2052001953125,0.9312977099236641,-2.50381679389313,0.11450381679389313,stand
1604241114.0658906,-0.1063232421875,0.966796875,-0.2137451171875,0.9083969465648855,-1.7328244274809161,-0.5801526717557252,stand
1604241114.1058905,-0.1182861328125,0.9658203125,-0.2142333984375,0.6106870229007634,-0.6335877862595419,-0.9618320610687023,stand
1604241114.1458905,-0.1077880859375,0.965087890625,-0.2020263671875,0.2748091603053435,-0.4351145038167939,-0.5877862595419847,stand
1604241114.1858904,-0.1165771484375,0.9599609375,-0.2220458984375,0.9007633587786259,-2.1603053435114505,0.06870229007633588,stand
1604241114.2258904,-0.0963134765625,0.965576171875,-0.2052001953125,0.9618320610687023,-1.9312977099236641,0.45038167938931295,stand
1604241114.2658904,-0.1060791015625,0.961669921875,-0.2020263671875,0.8625954198473282,-1.465648854961832,0.6870229007633588,stand
