accel_x,accel_y,accel_z,gyro_x,gyro_y,gyro_z,label
1604240407.069063,-0.2105712890625,1.18798828125,-0.1632080078125,-21.480916030534353,-8.557251908396946,-44.20610687022901,walk
1604240407.109063,-0.0074462890625,1.2919921875,-1.2320556640625,80.80916030534351,-74.25954198473282,18.862595419847327,walk
1604240407.1490629,-0.2708740234375,0.677978515625,0.1005859375,-3.9389312977099236,-41.99236641221374,-57.62595419847328,walk
1604240407.1890628,-0.3590087890625,0.96875,-0.4957275390625,11.977099236641221,-15.038167938931299,-51.31297709923664,walk
1604240407.2290628,-0.1717529296875,0.826416015625,-0.4161376953125,8.106870229007633,-42.55725190839695,-40.229007633587784,walk
1604240407.2690628,-0.2103271484375,0.908447265625,-0.3922119140625,10.076335877862595,-55.63358778625954,-45.61832061068702,walk
1604240407.3090627,-0.0999755859375,0.892333984375,-0.3240966796875,7.6106870229007635,-52.3206106870229,-43.29007633587786,walk
1604240407.3490627,-0.1239013671875,0.885498046875,-0.3656005859375,9.67175572519084,-39.45038167938932,-39.083969465648856,walk
1604240407.3890626,-0.0992431640625,0.86962890625,-0.3358154296875,14.16793893129771,-37.51145038167939,-37.25190839694657,walk
1604240407.4290626,-0.1358642578125,0.87939453125,-0.3590087890625,11.82442748091603,-49.67175572519084,-26.076335877862597,walk
1604240407.4690626,-0.1390380859375,0.89013671875,-0.3914794921875,8.992366412213741,-66.1145038167939,-14.251908396946565,walk
1604240407.5090625,-0.1246337890625,0.917236328125,-0.2733154296875,8.648854961832061,-54.267175572519086,-5.862595419847328,walk
1604240407.5490625,-0.0198974609375,0.89453125,-0.4840087890625,6.519083969465649,-40.06106870229008,0.183206106870229,walk
1604240407.5890625,-0.1241455078125,0.916015625,-0.5115966796875,-0.4961832061068702,-33.58015267175573,13.80916030534351,walk
1604240407.6290624,-0.1187744140625,1.18115234375,-0.4088134765625,-7.366412213740458,-62.05343511450382,51.85496183206107,walk
1604240407.6690624,0.310791015625,1.374267578125,-0.2574462890625,-27.31297709923664,-74.63358778625954,98.76335877862596,walk
1604240407.7090623,0.283935546875,1.426025390625,0.2158203125,-48.038167938931295,-91.14503816793894,175.16030534351145,walk
1604240407.7490623,-0.5137939453125,1.30615234375,0.11328125,-10.16793893129771,-150.25954198473283,165.8091603053435,walk
1604240407.7890623,-0.8812255859375,1.033447265625,-0.2584228515625,28.717557251908396,-201.06106870229007,144.23664122137404,walk
1604240407.8290622,0.06201171875,0.874267578125,-0.5128173828125,44.70992366412214,-125.67175572519083,138.33587786259542,walk
1604240407.8690622,0.20654296875,0.789794921875,-0.1795654296875,24.35114503816794,-66.3587786259542,99.72519083969466,walk
1604240407.9090621,0.09423828125,0.77734375,-0.1771240234375,15.977099236641221,32.770992366412216,58.19847328244275,walk
1604240407.949062,0.03515625,0.67822265625,-0.1019287109375,4.534351145038168,42.465648854961835,20.977099236641223,walk
1604240407.989062,-0.2528076171875,0.64453125,-0.0504150390625,-5.106870229007634,30.99236641221374,-3.6793893129770994,walk
1604240408.029062,-0.3455810546875,0.681640625,-0.1163330078125,-12.725190839694656,-48.93129770992366,-29.603053435114504,walk
1604240408.069062,-0.0213623046875,0.933349609375,-0.1265869140625,-26.244274809160306,-66.83969465648855,-72.90839694656489,walk
1604240408.109062,1.142333984375,1.523681640625,-0.2164306640625,-34.70992366412214,-41.79389312977099,-28.3206106870229,walk
1604240408.149062,1.009521484375,1.1025390625,-0.4798583984375,31.129770992366414,-26.251908396946565,21.282442748091604,walk
1604240408.1890619,-0.3941650390625,1.2978515625,-0.4361572265625,9.870229007633588,-76.83969465648855,-0.37404580152671757,walk
1604240408.2290618,0.02001953125,1.093017578125,-0.2916259765625,-50.48091603053435,-36.961832061068705,15.770992366412214,walk
1604240408.2690618,-0.2657470703125,1.189453125,-0.4683837890625,16.297709923664122,-98.70992366412214,-18.748091603053435,walk
1604240408.3090618,0.016357421875,1.12158203125,-0.5216064453125,-9.030534351145038,-34.16030534351145,-47.36641221374046,walk
1604240408.3490617,-0.3118896484375,0.768798828125,-0.3121337890625,-13.389312977099237,-56.47328244274809,-48.9236641221374,walk
1604240408.3890617,-0.0255126953125,0.873779296875,-0.5228271484375,1.3435114503816794,-62.20610687022901,-49.83969465648855,walk
1604240408.4290617,-0.0211181640625,0.876708984375,-0.4324951171875,-7.687022900763359,-40.9236641221374,-59.70229007633588,walk
1604240408.4690616,-0.0052490234375,0.90576171875,-0.3792724609375,-9.13740458015267,-29.633587786259543,-58.954198473282446,walk
1604240408.5090616,0.064453125,0.916748046875,-0.3087158203125,-7.99236641221374,-11.709923664122137,-52.83969465648855,walk
1604240408.5490615,0.0048828125,0.912353515625,-0.2611083984375,-10.557251908396946,10.549618320610687,-52.19083969465649,walk
1604240408.5890615,-0.0570068359375,0.983154296875,-0.2943115234375,-10.229007633587786,26.6793893129771,-50.3587786259542,walk
1604240408.6290615,-0.1495361328125,0.8759765625,-0.2928466796875,-10.786259541984732,19.610687022900763,-43.69465648854962,walk
1604240408.6690614,-0.1639404296875,0.8701171875,-0.4840087890625,-9.16793893129771,6.977099236641221,-29.83969465648855,walk
1604240408.7090614,-0.0635986328125,0.853515625,-0.2816162109375,-5.099236641221374,-0.1297709923664122,-10.068702290076336,walk
1604240408.7490613,0.021484375,0.95166015625,-0.2664794921875,-14.977099236641221,1.1526717557251909,7.7251908396946565,walk
1604240408.7890613,-0.0999755859375,1.01953125,-0.3160400390625,-28.702290076335878,34.76335877862596,2.877862595419847,walk
1604240408.8290613,0.109619140625,1.118896484375,-0.4974365234375,-47.900763358778626,19.091603053435115,18.091603053435115,walk
1604240408.8690612,0.592041015625,1.3330078125,-0.3411865234375,-81.79389312977099,29.198473282442748,81.47328244274809,walk
1604240408.9090612,0.513671875,1.511474609375,0.0224609375,-86.87786259541984,56.732824427480914,156.9770992366412,walk
1604240408.9490612,-0.1422119140625,1.1572265625,-0.5985107421875,5.7251908396946565,35.87786259541985,122.80152671755725,walk
1604240408.989061,-0.8314208984375,1.099609375,-0.5506591796875,29.358778625954198,-23.66412213740458,135.24427480916032,walk
1604240409.029061,0.05517578125,0.849609375,-0.6429443359375,43.51145038167939,106.0,85.29770992366412,walk
1604240409.069061,0.076416015625,0.831787109375,-0.3487548828125,45.05343511450382,113.70992366412214,59.12213740458015,walk
1604240409.109061,-0.2432861328125,0.650146484375,-0.3140869140625,68.1145038167939,167.73282442748092,10.488549618320612,walk
1604240409.149061,-0.0670166015625,0.648681640625,-0.2786865234375,59.083969465648856,178.66412213740458,-44.63358778625954,walk
1604240409.189061,-0.4100341796875,0.83935546875,-0.3287353515625,60.61832061068702,120.83206106870229,-49.13740458015267,walk
1604240409.229061,-0.6988525390625,0.61279296875,-0.1990966796875,48.6412213740458,81.1145038167939,-59.083969465648856,walk
1604240409.2690609,-0.1138916015625,0.97607421875,0.04541015625,8.625954198473282,130.9770992366412,-98.63358778625954,walk
1604240409.3090608,0.650634765625,1.174560546875,0.09521484375,2.717557251908397,87.06106870229007,-35.82442748091603,walk
1604240409.3490608,0.68408203125,1.0830078125,-0.9107666015625,61.14503816793893,-11.778625954198473,-6.549618320610687,walk
1604240409.3890607,0.326416015625,0.85595703125,-0.6680908203125,64.21374045801527,34.343511450381676,5.061068702290076,walk
1604240409.4290607,-0.3363037109375,1.193359375,-0.7210693359375,0.21374045801526717,89.42748091603053,-77.22137404580153,walk
1604240409.4690607,0.708984375,1.656494140625,-0.1732177734375,-110.76335877862596,247.3053435114504,-31.740458015267176,walk
1604240409.5090606,-1.2803955078125,0.780517578125,0.185546875,-25.519083969465647,-2.763358778625954,-22.72519083969466,walk
1604240409.5490606,0.130859375,0.634521484375,-0.3812255859375,13.48091603053435,-68.80152671755725,-98.55725190839695,walk
1604240409.5890605,-0.0059814453125,1.1796875,-0.4000244140625,-19.045801526717558,58.083969465648856,-65.32824427480917,walk
1604240409.6290605,-0.1754150390625,0.733642578125,-0.3404541015625,-6.679389312977099,42.51908396946565,-84.92366412213741,walk
1604240409.6690605,-0.3712158203125,0.901611328125,-0.3167724609375,7.7251908396946565,-17.076335877862597,-81.58015267175573,walk
1604240409.7090604,-0.0738525390625,0.8935546875,-0.3123779296875,8.961832061068701,-19.374045801526716,-64.07633587786259,walk
1604240409.7490604,0.0205078125,0.91650390625,-0.2974853515625,9.641221374045802,13.076335877862595,-54.412213740458014,walk
1604240409.7890604,-0.1107177734375,0.869140625,-0.2762451171875,4.931297709923665,20.49618320610687,-54.80152671755725,walk
1604240409.8290603,-0.2777099609375,0.882568359375,-0.2913818359375,6.221374045801527,26.31297709923664,-56.274809160305345,walk
1604240409.8690603,-0.2996826171875,0.9130859375,-0.2459716796875,2.8091603053435112,4.938931297709924,-46.2442748091603,walk
1604240409.9090602,-0.1148681640625,0.97900390625,-0.2261962890625,3.519083969465649,-18.786259541984734,-30.83969465648855,walk
1604240409.9490602,-0.0745849609375,0.954833984375,-0.4578857421875,-5.396946564885496,-4.221374045801527,-18.206106870229007,walk
1604240409.9890602,-0.0997314453125,1.031005859375,-0.3485107421875,-13.870229007633588,-4.511450381679389,-4.687022900763359,walk
1604240410.0290601,-0.0611572265625,1.243408203125,-0.5831298828125,-18.419847328244273,-13.129770992366412,24.84732824427481,walk
1604240410.06906,0.494384765625,1.490478515625,-0.2808837890625,-68.16793893129771,-14.145038167938932,102.6793893129771,walk
1604240410.10906,0.48388671875,1.126220703125,-0.0567626953125,-46.74045801526717,20.427480916030536,158.36641221374046,walk
1604240410.14906,-0.4215087890625,1.24267578125,-0.0413818359375,11.65648854961832,-31.106870229007633,133.93129770992365,walk
1604240410.18906,-0.6549072265625,1.322998046875,-0.4820556640625,8.603053435114504,-17.984732824427482,143.34351145038167,walk
1604240410.22906,-0.0013427734375,0.88037109375,-0.3184814453125,45.969465648854964,-39.41984732824427,124.3206106870229,walk
1604240410.26906,-0.1197509765625,0.855712890625,-0.1551513671875,55.229007633587784,14.381679389312977,102.62595419847328,walk
1604240410.3090599,-0.0496826171875,0.6875,-0.1556396484375,55.12977099236641,72.46564885496183,58.14503816793893,walk
1604240410.3490598,-0.0172119140625,0.58349609375,-0.1385498046875,49.00763358778626,103.81679389312977,-7.580152671755725,walk
1604240410.3890598,-0.5535888671875,0.575927734375,-0.1612548828125,40.0,40.99236641221374,-49.534351145038165,walk
1604240410.4290597,-0.4188232421875,0.762451171875,0.135986328125,-24.633587786259543,29.480916030534353,-93.6412213740458,walk
1604240410.4690597,0.56494140625,1.263671875,0.21240234375,-95.29007633587786,75.98473282442748,-63.29007633587786,walk
1604240410.5090597,1.15087890625,1.286376953125,-0.5777587890625,75.14503816793894,-33.48091603053435,47.47328244274809,walk
1604240410.5490596,-0.5526123046875,0.71875,-0.0970458984375,75.19083969465649,-122.38931297709924,27.740458015267176,walk
1604240410.5890596,-0.4136962890625,1.330322265625,0.46923828125,-31.068702290076335,-11.938931297709924,-71.25190839694656,walk
1604240410.6290596,1.135498046875,1.484130859375,-1.1480712890625,79.93129770992367,-22.03053435114504,26.045801526717558,walk
1604240410.6690595,-1.5189208984375,0.059326171875,0.3974609375,-11.633587786259541,-22.022900763358777,-72.09160305343511,walk
1604240410.7090595,0.11328125,1.526611328125,-0.4388427734375,16.083969465648856,-37.83969465648855,-95.85496183206106,walk
1604240410.7490594,-0.0831298828125,0.860595703125,-0.2911376953125,-3.435114503816794,-39.83206106870229,-73.06870229007633,walk
1604240410.7890594,-0.1663818359375,0.8388671875,-0.3780517578125,7.549618320610687,-28.99236641221374,-75.52671755725191,walk
1604240410.8290594,-0.1280517578125,0.88525390625,-0.3375244140625,8.49618320610687,-27.717557251908396,-60.06106870229008,walk
1604240410.8690593,-0.0672607421875,0.8994140625,-0.3150634765625,19.404580152671755,-31.732824427480917,-46.732824427480914,walk
1604240410.9090593,-0.0015869140625,0.95166015625,-0.3526611328125,11.916030534351146,-22.419847328244273,-29.87786259541985,walk
1604240410.9490592,-0.0653076171875,0.869384765625,-0.3162841796875,4.282442748091603,-1.6717557251908397,-37.587786259541986,walk
1604240410.9890592,-0.1959228515625,0.895751953125,-0.3240966796875,-3.8625954198473282,-4.206106870229007,-39.274809160305345,walk
1604240411.0290592,-0.1727294921875,0.90625,-0.3258056640625,0.0,-36.20610687022901,-32.86259541984733,walk
1604240411.0690591,-0.0291748046875,1.017578125,-0.2188720703125,-8.51908396946565,-27.137404580152673,-25.328244274809162,walk
1604240411.109059,0.09228515625,1.021484375,-0.3714599609375,-24.16030534351145,-1.7709923664122138,-4.564885496183206,walk
1604240411.149059,0.1240234375,1.2158203125,-0.3880615234375,-45.48091603053435,-7.587786259541985,26.81679389312977,walk
1604240411.189059,0.561279296875,1.30810546875,-0.4710693359375,-74.54961832061069,-2.885496183206107,86.0381679389313,walk
1604240411.229059,0.3935546875,1.134765625,-0.0133056640625,-65.85496183206106,8.969465648854962,160.0381679389313,walk
1604240411.269059,-0.3839111328125,1.49853515625,-0.4871826171875,33.87786259541985,-14.755725190839694,121.37404580152672,walk
1604240411.309059,-0.2664794921875,1.301513671875,-0.2896728515625,14.48091603053435,23.954198473282442,131.70229007633588,walk
1604240411.3490589,0.0556640625,0.91845703125,-0.3477783203125,48.603053435114504,3.3893129770992365,107.29770992366412,walk
1604240411.3890588,-0.0548095703125,0.84423828125,-0.1590576171875,46.603053435114504,70.54198473282443,78.31297709923665,walk
1604240411.4290588,-0.1038818359375,0.738037109375,-0.1837158203125,42.61832061068702,123.89312977099236,39.961832061068705,walk
1604240411.4690588,-0.3123779296875,0.537353515625,-0.3170166015625,45.412213740458014,106.85496183206106,-0.48091603053435117,walk
1604240411.5090587,-0.6124267578125,0.60546875,-0.2901611328125,63.099236641221374,-4.358778625954199,-36.61068702290076,walk
1604240411.5490587,-0.3040771484375,0.69970703125,0.04638671875,6.068702290076335,62.85496183206107,-91.57251908396947,walk
1604240411.5890586,0.540771484375,1.379150390625,0.16552734375,-110.87786259541984,219.55725190839695,-104.09160305343511,walk
1604240411.6290586,1.45458984375,1.337158203125,-0.9964599609375,55.62595419847328,78.96946564885496,-20.442748091603054,walk
1604240411.6690586,-0.4625244140625,0.820556640625,-0.3082275390625,38.58015267175573,9.267175572519085,-0.06870229007633588,walk
1604240411.7090585,-1.0711669921875,1.4384765625,1.016845703125,10.282442748091603,52.16793893129771,-89.70229007633588,walk
1604240411.7490585,0.866455078125,1.3134765625,-0.4000244140625,32.17557251908397,-45.06870229007634,27.450381679389313,walk
1604240411.7890584,-1.0167236328125,0.310302734375,0.048583984375,-7.351145038167939,2.7480916030534353,-72.90076335877863,walk
1604240411.8290584,-0.0059814453125,1.215576171875,-0.4832763671875,-0.6641221374045801,30.358778625954198,-79.09160305343511,walk
1604240411.8690584,-0.1851806640625,0.86669921875,-0.3179931640625,-4.969465648854962,-1.083969465648855,-82.63358778625954,walk
1604240411.9090583,-0.1593017578125,0.902587890625,-0.2864990234375,8.793893129770993,-0.1450381679389313,-83.6030534351145,walk
1604240411.9490583,-0.0186767578125,0.933349609375,-0.2440185546875,5.122137404580153,3.6946564885496183,-67.41984732824427,walk
1604240411.9890583,0.0673828125,0.928955078125,-0.2716064453125,1.0687022900763359,37.36641221374046,-60.778625954198475,walk
1604240412.0290582,-0.0684814453125,0.890380859375,-0.3482666015625,-5.076335877862595,63.66412213740458,-59.603053435114504,walk
1604240412.0690582,-0.2242431640625,0.87548828125,-0.2718505859375,-5.633587786259542,63.70229007633588,-58.76335877862596,walk
1604240412.1090581,-0.2655029296875,0.915283203125,-0.3702392578125,-5.702290076335878,45.603053435114504,-55.88549618320611,walk
1604240412.149058,-0.1343994140625,0.994873046875,-0.2943115234375,-13.465648854961833,33.11450381679389,-49.42748091603053,walk
1604240412.189058,-0.0562744140625,1.02197265625,-0.3238525390625,-17.282442748091604,40.221374045801525,-43.6412213740458,walk
1604240412.229058,-0.1878662109375,0.94482421875,-0.3880615234375,-30.480916030534353,48.961832061068705,-30.213740458015266,walk
1604240412.269058,-0.0860595703125,1.22998046875,-0.4708251953125,-29.580152671755727,15.549618320610687,-2.9618320610687023,walk
1604240412.309058,0.272705078125,1.2705078125,-0.4808349609375,-57.36641221374046,18.740458015267176,54.48854961832061,walk
1604240412.349058,0.5126953125,0.991455078125,-0.1365966796875,-66.99236641221374,26.045801526717558,125.53435114503817,walk
1604240412.3890579,0.081787109375,0.998779296875,-0.1959228515625,-14.198473282442748,88.41984732824427,123.31297709923665,walk
1604240412.4290578,-0.6114501953125,1.3291015625,-0.4761962890625,23.15267175572519,44.63358778625954,94.54961832061069,walk
1604240412.4690578,-0.3563232421875,0.999755859375,-0.3568115234375,16.85496183206107,42.36641221374046,111.45038167938931,walk
1604240412.5090578,-0.2640380859375,0.95947265625,-0.2296142578125,39.80152671755725,39.717557251908396,97.07633587786259,walk
1604240412.5490577,-0.1444091796875,0.85595703125,-0.1072998046875,64.93893129770993,64.22137404580153,89.7175572519084,walk
1604240412.5890577,-0.1197509765625,0.727783203125,-0.1341552734375,59.43511450381679,101.30534351145039,39.58015267175573,walk
1604240412.6290576,-0.2081298828125,0.69677734375,-0.1197509765625,60.67175572519084,79.86259541984732,0.6641221374045801,walk
1604240412.6690576,-0.4989013671875,0.737060546875,-0.1612548828125,56.954198473282446,0.4198473282442748,-32.02290076335878,walk
1604240412.7090576,-0.4537353515625,0.68505859375,-0.0113525390625,33.00763358778626,-19.18320610687023,-70.61832061068702,walk
1604240412.7490575,0.260986328125,1.118408203125,0.211669921875,-46.396946564885496,53.045801526717554,-75.21374045801527,walk
1604240412.7890575,1.717041015625,1.455810546875,-0.8563232421875,55.595419847328245,-31.35114503816794,-1.9465648854961832,walk
1604240412.8290575,0.30126953125,0.86328125,-0.5255126953125,42.47328244274809,7.877862595419847,21.50381679389313,walk
1604240412.8690574,-0.8880615234375,1.139404296875,0.378662109375,-53.343511450381676,9.106870229007633,-0.1297709923664122,walk
1604240412.9090574,0.26806640625,0.907958984375,-0.7359619140625,79.23664122137404,-97.67175572519083,50.80916030534351,walk
1604240412.9490573,-0.8223876953125,0.549560546875,0.014404296875,9.549618320610687,-85.65648854961832,-82.50381679389314,walk
1604240412.9890573,0.117431640625,1.0654296875,-0.4906005859375,-3.8473282442748094,-7.625954198473282,-67.12213740458016,walk
1604240413.0290573,-0.2620849609375,0.768798828125,-0.4224853515625,5.099236641221374,-9.931297709923664,-81.54198473282443,walk
1604240413.0690572,-0.3218994140625,0.886962890625,-0.2867431640625,17.366412213740457,-35.47328244274809,-84.83206106870229,walk
1604240413.1090572,-0.0933837890625,0.884033203125,-0.3211669921875,18.045801526717558,-47.50381679389313,-69.91603053435115,walk
1604240413.1490571,0.057373046875,0.872802734375,-0.3768310546875,17.374045801526716,-24.52671755725191,-50.9236641221374,walk
1604240413.189057,-0.0196533203125,0.9208984375,-0.3372802734375,14.877862595419847,-16.0381679389313,-38.38167938931298,walk
1604240413.229057,-0.1522216796875,0.883544921875,-0.3394775390625,7.748091603053435,-2.068702290076336,-36.70992366412214,walk
1604240413.269057,-0.2991943359375,0.908203125,-0.2218017578125,5.961832061068702,-26.85496183206107,-30.267175572519083,walk
1604240413.309057,-0.1190185546875,0.9677734375,-0.3282470703125,5.33587786259542,-57.404580152671755,-15.022900763358779,walk
1604240413.349057,-0.0430908203125,0.914306640625,-0.4749755859375,-4.022900763358779,-18.587786259541986,-11.511450381679388,walk
1604240413.389057,-0.1285400390625,0.998291015625,-0.5028076171875,-11.511450381679388,-24.16793893129771,1.5877862595419847,walk
1604240413.429057,-0.1055908203125,1.212158203125,-0.4803466796875,-15.793893129770993,-31.580152671755727,21.519083969465647,walk
1604240413.4690568,0.4248046875,1.40185546875,-0.3521728515625,-44.12977099236641,-54.732824427480914,87.45038167938931,walk
1604240413.5090568,0.484130859375,1.19091796875,0.11328125,-54.41984732824427,-28.87786259541985,163.38931297709922,walk
1604240413.5490568,-0.4229736328125,1.1923828125,0.043212890625,-1.4122137404580153,-78.69465648854961,150.70229007633588,walk
1604240413.5890567,-0.8350830078125,1.27001953125,-0.3367919921875,19.81679389312977,-117.56488549618321,142.53435114503816,walk
1604240413.6290567,-0.0933837890625,0.83203125,-0.4022216796875,61.786259541984734,-103.2824427480916,130.93129770992365,walk
1604240413.6690567,0.0126953125,0.829833984375,-0.1431884765625,51.58015267175573,-41.030534351145036,104.30534351145039,walk
1604240413.7090566,0.01123046875,0.689453125,-0.1324462890625,54.83206106870229,21.015267175572518,53.969465648854964,walk
1604240413.7490566,0.014404296875,0.598876953125,-0.1331787109375,43.79389312977099,59.86259541984733,1.0534351145038168,walk
1604240413.7890565,-0.3319091796875,0.597412109375,-0.1568603515625,30.427480916030536,36.778625954198475,-35.49618320610687,walk
1604240413.8290565,-0.5579833984375,0.68310546875,-0.0933837890625,-6.969465648854962,-26.30534351145038,-67.29007633587786,walk
1604240413.8690565,-0.0096435546875,0.90966796875,0.00390625,-37.19083969465649,-17.580152671755727,-87.83206106870229,walk
1604240413.9090564,1.99993896484375,1.99993896484375,-0.5736083984375,1.4274809160305344,29.419847328244273,34.81679389312977,walk
1604240413.9490564,0.021728515625,1.076416015625,-0.5069580078125,84.08396946564885,-126.90839694656489,20.66412213740458,walk
1604240413.9890563,-0.5218505859375,1.12109375,-0.0091552734375,17.412213740458014,-99.10687022900764,-11.221374045801527,walk
1604240414.0290563,0.79296875,1.07177734375,-0.3568115234375,-113.44274809160305,109.97709923664122,-9.061068702290076,walk
1604240414.0690563,-0.6824951171875,1.21240234375,-0.3043212890625,-29.80916030534351,5.183206106870229,-38.05343511450382,walk
1604240414.1090562,-0.2259521484375,0.596435546875,-0.1934814453125,-5.984732824427481,-59.030534351145036,-42.70992366412214,walk
1604240414.1490562,-0.1583251953125,1.078125,-0.5240478515625,3.885496183206107,-55.06870229007634,-37.6412213740458,walk
1604240414.1890562,-0.1864013671875,0.77587890625,-0.4437255859375,5.1679389312977095,-41.541984732824424,-46.02290076335878,walk
1604240414.2290561,-0.2056884765625,0.8779296875,-0.4600830078125,5.5038167938931295,-63.44274809160305,-53.083969465648856,walk
1604240414.269056,-0.0413818359375,0.948486328125,-0.3663330078125,0.3969465648854962,-42.786259541984734,-45.62595419847328,walk
1604240414.309056,-0.0081787109375,0.86669921875,-0.3231201171875,-1.7557251908396947,-46.083969465648856,-30.19083969465649,walk
1604240414.349056,-0.0216064453125,0.86279296875,-0.3609619140625,3.8396946564885495,-39.56488549618321,-26.03053435114504,walk
1604240414.389056,-0.1265869140625,0.8828125,-0.2943115234375,0.9770992366412213,-18.81679389312977,-28.328244274809162,walk
1604240414.429056,-0.2139892578125,0.933349609375,-0.2357177734375,-2.267175572519084,-27.564885496183205,-25.87786259541985,walk
1604240414.469056,-0.1121826171875,0.913330078125,-0.2906494140625,5.427480916030534,-25.47328244274809,-24.9618320610687,walk
1604240414.5090559,-0.0797119140625,0.939453125,-0.3577880859375,3.404580152671756,-30.717557251908396,-16.748091603053435,walk
1604240414.5490558,0.026611328125,0.9599609375,-0.5203857421875,-4.541984732824427,-16.6793893129771,-0.2366412213740458,walk
1604240414.5890558,0.03173828125,1.266357421875,-0.4796142578125,-13.86259541984733,-28.786259541984734,32.56488549618321,walk
1604240414.6290557,0.365234375,1.438232421875,-0.2796630859375,-45.97709923664122,-56.587786259541986,103.2824427480916,walk
1604240414.6690557,0.111328125,1.353759765625,0.266845703125,-55.58015267175573,-57.66412213740458,173.38167938931298,walk
1604240414.7090557,-0.7149658203125,1.154541015625,-0.1138916015625,13.557251908396946,-142.55725190839695,146.6946564885496,walk
1604240414.7490556,-0.1837158203125,1.034912109375,-0.4437255859375,32.06870229007634,-102.70229007633588,134.2290076335878,walk
1604240414.7890556,0.11328125,0.873779296875,-0.4295654296875,36.396946564885496,-32.656488549618324,119.8854961832061,walk
1604240414.8290555,-0.0306396484375,0.77197265625,-0.2203369140625,30.50381679389313,38.70992366412214,85.89312977099236,walk
1604240414.8690555,-0.0164794921875,0.65576171875,-0.2069091796875,40.66412213740458,80.25954198473282,40.0763358778626,walk
1604240414.9090555,-0.2030029296875,0.60888671875,-0.2113037109375,42.12213740458015,79.45801526717557,-6.557251908396947,walk
1604240414.9490554,-0.5106201171875,0.67529296875,-0.1278076171875,41.56488549618321,2.122137404580153,-33.16793893129771,walk
1604240414.9890554,-0.5528564453125,0.66796875,-0.2030029296875,32.587786259541986,-66.2442748091603,-67.13740458015268,walk
1604240415.0290554,0.051025390625,1.027587890625,0.037841796875,-16.374045801526716,1.083969465648855,-86.65648854961832,walk
1604240415.0690553,1.6982421875,1.5439453125,-0.7196044921875,64.61832061068702,-131.61832061068702,22.633587786259543,walk
1604240415.1090553,0.59228515625,1.12158203125,-0.5875244140625,60.13740458015267,25.076335877862597,25.82442748091603,walk
1604240415.1490552,-0.6888427734375,1.1123046875,-0.2088623046875,-10.83969465648855,-34.76335877862596,-2.717557251908397,walk
1604240415.1890552,-0.0067138671875,1.167236328125,-0.2120361328125,-100.90076335877863,59.67175572519084,-18.419847328244273,walk
1604240415.2290552,-0.3450927734375,1.31591796875,-0.4722900390625,4.015267175572519,-44.396946564885496,-4.564885496183206,walk
1604240415.2690551,-0.2000732421875,0.8115234375,-0.3314208984375,1.6106870229007633,-64.7557251908397,-55.97709923664122,walk
1604240415.309055,-0.1478271484375,0.99658203125,-0.4776611328125,-0.5419847328244275,-10.549618320610687,-56.31297709923664,walk
1604240415.349055,-0.3248291015625,0.8115234375,-0.4554443359375,10.17557251908397,-43.61068702290076,-53.80916030534351,walk
1604240415.389055,-0.2159423828125,0.8974609375,-0.3634033203125,8.977099236641221,-68.62595419847328,-53.06106870229008,walk
1604240415.429055,-0.0994873046875,0.861083984375,-0.3863525390625,10.007633587786259,-63.87786259541985,-43.9236641221374,walk
1604240415.469055,0.06103515625,0.89892578125,-0.3675537109375,12.267175572519085,-38.778625954198475,-33.02290076335878,walk
1604240415.509055,-0.0533447265625,0.873291015625,-0.3934326171875,11.885496183206106,-39.02290076335878,-27.770992366412212,walk
1604240415.5490549,-0.1302490234375,0.89111328125,-0.3856201171875,5.305343511450381,-37.099236641221374,-19.603053435114504,walk
1604240415.5890548,-0.1939697265625,0.943115234375,-0.2618408203125,7.847328244274809,-58.55725190839695,-4.99236641221374,walk
1604240415.6290548,-0.0379638671875,0.92431640625,-0.3477783203125,3.3282442748091605,-58.0,0.1450381679389313,walk
1604240415.6690547,-0.0799560546875,0.896484375,-0.4202880859375,-5.152671755725191,-34.0,-2.145038167938931,walk
1604240415.7090547,-0.1475830078125,0.996337890625,-0.4754638671875,-15.870229007633588,-28.69465648854962,7.8320610687022905,walk
1604240415.7490547,0.00146484375,1.111572265625,-0.3441162109375,-20.290076335877863,-45.2442748091603,32.0,walk
1604240415.7890546,0.220458984375,1.44482421875,-0.2049560546875,-46.786259541984734,-40.94656488549618,77.74809160305344,walk
1604240415.8290546,0.317626953125,1.28369140625,0.108642578125,-63.30534351145038,-61.099236641221374,150.45801526717557,walk
1604240415.8690546,-0.3475341796875,1.12939453125,-0.1148681640625,-9.786259541984732,-108.83206106870229,155.9770992366412,walk
1604240415.9090545,-0.6654052734375,1.26708984375,-0.2735595703125,15.15267175572519,-132.29770992366412,130.27480916030535,walk
1604240415.9490545,-0.0924072265625,0.848388671875,-0.3470458984375,42.465648854961835,-96.05343511450381,121.76335877862596,walk
1604240415.9890544,-0.0404052734375,0.812744140625,-0.1663818359375,34.36641221374046,-48.36641221374046,86.45801526717557,walk
1604240416.0290544,0.03515625,0.728271484375,-0.1097412109375,32.717557251908396,27.290076335877863,48.13740458015267,walk
1604240416.0690544,-0.0474853515625,0.606201171875,-0.1134033203125,35.61068702290076,61.94656488549618,5.5038167938931295,walk
1604240416.1090543,-0.3170166015625,0.595703125,-0.1683349609375,32.54961832061068,19.633587786259543,-23.366412213740457,walk
1604240416.1490543,-0.5965576171875,0.719482421875,-0.1746826171875,13.580152671755725,-71.29007633587786,-39.70992366412214,walk
1604240416.1890543,-0.3057861328125,0.846435546875,-0.1185302734375,12.106870229007633,-71.73282442748092,-62.16030534351145,walk
1604240416.2290542,0.83349609375,1.24072265625,-0.6622314453125,68.61068702290076,-117.03053435114504,-29.0381679389313,walk
1604240416.2690542,1.492919921875,1.4013671875,-0.2694091796875,-4.358778625954199,16.282442748091604,21.931297709923665,walk
1604240416.3090541,0.043212890625,1.029541015625,-0.3016357421875,23.14503816793893,-13.061068702290076,33.595419847328245,walk
1604240416.349054,-0.2689208984375,0.846923828125,-0.1737060546875,2.8244274809160306,-68.0381679389313,-17.450381679389313,walk
1604240416.389054,-0.2838134765625,1.262939453125,-0.2542724609375,-52.274809160305345,-16.35114503816794,-40.70992366412214,walk
1604240416.429054,0.6396484375,1.19775390625,-1.2003173828125,131.22137404580153,-50.74045801526717,41.732824427480914,walk
1604240416.469054,-0.9703369140625,0.48046875,0.513427734375,-28.091603053435115,-71.45038167938931,-29.931297709923665,walk
1604240416.509054,-0.0052490234375,1.014404296875,-0.5924072265625,24.740458015267176,-58.62595419847328,-21.0381679389313,walk
1604240416.549054,-0.1998291015625,0.89453125,-0.4256591796875,1.900763358778626,-49.93129770992366,-1.4885496183206106,walk
1604240416.5890539,-0.2113037109375,0.941650390625,-0.3485107421875,8.977099236641221,-72.87022900763358,-11.473282442748092,walk
1604240416.6290538,-0.2281494140625,0.896240234375,-0.3677978515625,4.847328244274809,-83.25190839694656,-17.236641221374047,walk
1604240416.6690538,-0.0657958984375,0.932373046875,-0.3795166015625,-0.16030534351145037,-66.45801526717557,-12.099236641221374,walk
1604240416.7090538,-0.0596923828125,0.895263671875,-0.3463134765625,2.366412213740458,-58.25190839694657,-7.877862595419847,walk
1604240416.7490537,-0.1470947265625,0.91943359375,-0.4002685546875,1.3282442748091603,-68.87022900763358,2.0839694656488548,walk
1604240416.7890537,-0.2005615234375,0.883056640625,-0.3563232421875,0.7938931297709924,-81.68702290076335,10.740458015267176,walk
1604240416.8290536,0.029296875,0.9111328125,-0.3526611328125,5.625954198473282,-96.52671755725191,22.061068702290076,walk
1604240416.8690536,0.018310546875,0.920654296875,-0.4188232421875,-2.564885496183206,-82.61068702290076,29.328244274809162,walk
1604240416.9090536,-0.2293701171875,0.864501953125,-0.4632568359375,-2.9770992366412212,-77.74809160305344,27.419847328244273,walk
1604240416.9490535,-0.2757568359375,0.928466796875,-0.4505615234375,-2.236641221374046,-110.7175572519084,36.30534351145038,walk
1604240416.9890535,-0.1744384765625,0.98046875,-0.3763427734375,-3.450381679389313,-118.45038167938931,54.786259541984734,walk
1604240417.0290534,-0.1619873046875,1.231201171875,-0.3089599609375,5.122137404580153,-155.08396946564886,74.51908396946565,walk
1604240417.0690534,-0.2020263671875,1.22119140625,-0.1165771484375,14.19083969465649,-162.45038167938932,105.4885496183206,walk
1604240417.1090534,-0.2410888671875,1.1201171875,-0.0260009765625,19.061068702290076,-149.3053435114504,122.3206106870229,walk
1604240417.1490533,-0.3511962890625,0.9111328125,-0.0716552734375,7.0458015267175576,-172.93893129770993,97.06106870229007,walk
1604240417.1890533,-0.2105712890625,0.8896484375,-0.2484130859375,-6.557251908396947,-193.3053435114504,75.09160305343511,walk
1604240417.2290533,-0.1055908203125,0.8896484375,-0.2691650390625,-36.091603053435115,-140.05343511450383,73.14503816793894,walk
1604240417.2690532,0.1416015625,0.806396484375,-0.3070068359375,-47.61068702290076,-115.85496183206106,62.38167938931298,walk
1604240417.3090532,0.28564453125,0.916015625,-0.3292236328125,-66.12213740458016,-58.94656488549618,39.412213740458014,walk
1604240417.3490531,0.041748046875,0.894287109375,-0.1297607421875,-62.7557251908397,-45.12213740458015,6.5038167938931295,walk
1604240417.389053,-0.1319580078125,0.862060546875,-0.1080322265625,-44.20610687022901,-89.45801526717557,-9.412213740458014,walk
1604240417.429053,0.0185546875,0.89306640625,-0.1810302734375,-20.702290076335878,-137.48091603053436,-3.0381679389312977,walk
1604240417.469053,0.213134765625,0.890380859375,-0.2843017578125,-0.5801526717557252,-149.4885496183206,2.053435114503817,walk
1604240417.509053,0.40087890625,0.804931640625,-0.1832275390625,26.114503816793892,-140.87022900763358,12.427480916030534,walk
1604240417.549053,0.18798828125,0.95068359375,-0.2794189453125,23.519083969465647,-142.93893129770993,33.16793893129771,walk
1604240417.589053,0.21435546875,0.838134765625,-0.2979736328125,55.732824427480914,-178.12213740458014,12.19083969465649,walk
1604240417.6290529,0.54345703125,0.956298828125,-0.3016357421875,37.87022900763359,-124.0,-9.129770992366412,walk
1604240417.6690528,0.393310546875,0.941650390625,-0.3592529296875,30.9618320610687,-35.33587786259542,-20.50381679389313,walk
1604240417.7090528,0.090576171875,1.1376953125,-0.2208251953125,13.15267175572519,8.16793893129771,-59.16793893129771,walk
1604240417.7490528,0.60595703125,1.361328125,-0.0960693359375,-31.33587786259542,56.37404580152672,-6.511450381679389,walk
1604240417.7890527,-0.5460205078125,0.99560546875,-0.1339111328125,30.35114503816794,-29.458015267175572,14.763358778625955,walk
1604240417.8290527,-0.2935791015625,0.697265625,-0.2291259765625,26.412213740458014,-162.54198473282443,-3.3053435114503817,walk
1604240417.8690526,0.110595703125,1.057373046875,-0.6282958984375,18.83206106870229,-51.603053435114504,-26.763358778625953,walk
1604240417.9090526,-0.0950927734375,0.91552734375,-0.3809814453125,0.3893129770992366,4.931297709923665,-40.55725190839695,walk
1604240417.9490526,-0.3663330078125,0.91015625,-0.3487548828125,2.519083969465649,-45.25954198473283,-38.74809160305343,walk
1604240417.9890525,-0.1292724609375,0.893310546875,-0.3970947265625,9.305343511450381,-69.70229007633588,-32.41984732824427,walk
1604240418.0290525,0.08642578125,0.919189453125,-0.3646240234375,8.129770992366412,-51.267175572519086,-28.83206106870229,walk
1604240418.0690525,-0.0006103515625,0.91650390625,-0.3243408203125,3.2977099236641223,-26.610687022900763,-24.259541984732824,walk
1604240418.1090524,-0.1322021484375,0.897216796875,-0.3546142578125,6.511450381679389,-26.00763358778626,-24.923664122137403,walk
1604240418.1490524,-0.1300048828125,0.935546875,-0.3499755859375,7.412213740458015,-40.32824427480916,-18.137404580152673,walk
1604240418.1890523,-0.1326904296875,0.94580078125,-0.2584228515625,6.236641221374046,-36.396946564885496,-11.221374045801527,walk
1604240418.2290523,-0.1326904296875,0.94677734375,-0.3255615234375,3.877862595419847,-19.480916030534353,-13.465648854961833,walk
1604240418.2690523,-0.0650634765625,0.941650390625,-0.3135986328125,1.8396946564885497,6.022900763358779,-26.259541984732824,walk
1604240418.3090522,-0.0963134765625,0.93408203125,-0.3824462890625,-5.3893129770992365,-11.992366412213741,-16.80916030534351,walk
1604240418.3490522,-0.1180419921875,0.99072265625,-0.3526611328125,-12.549618320610687,-22.236641221374047,6.190839694656488,walk
1604240418.3890522,0.12451171875,1.190673828125,-0.4136962890625,-15.83969465648855,-35.3587786259542,32.725190839694655,walk
1604240418.429052,0.538818359375,1.438232421875,-0.2569580078125,-58.656488549618324,-24.47328244274809,94.2824427480916,walk
1604240418.469052,0.389892578125,1.21142578125,0.013427734375,-54.87022900763359,-0.7862595419847328,154.31297709923663,walk
1604240418.509052,-0.5191650390625,1.202880859375,-0.0494384765625,-2.4580152671755724,-52.80152671755725,138.19847328244273,walk
1604240418.549052,-0.5257568359375,1.201416015625,-0.3817138671875,31.053435114503817,-66.92366412213741,121.41984732824427,walk
1604240418.589052,0.070556640625,0.7939453125,-0.4141845703125,44.534351145038165,-53.41984732824427,111.50381679389314,walk
1604240418.629052,0.12646484375,0.866943359375,-0.2464599609375,45.61068702290076,9.610687022900763,76.01526717557252,walk
1604240418.669052,0.083251953125,0.722412109375,-0.1968994140625,45.70992366412214,97.97709923664122,42.43511450381679,walk
1604240418.7090518,0.03369140625,0.660888671875,-0.2376708984375,49.282442748091604,136.4351145038168,-8.48091603053435,walk
1604240418.7490518,-0.3909912109375,0.679931640625,-0.2073974609375,43.58015267175573,85.78625954198473,-35.091603053435115,walk
1604240418.7890518,-0.4879150390625,0.72314453125,-0.1624755859375,28.9618320610687,0.4961832061068702,-56.74809160305343,walk
1604240418.8290517,-0.0682373046875,0.979248046875,-0.0111083984375,6.648854961832061,21.786259541984734,-88.74045801526718,walk
1604240418.8690517,1.0546875,1.5478515625,-0.1087646484375,-9.374045801526718,-1.366412213740458,-17.52671755725191,walk
1604240418.9090517,0.856689453125,1.162841796875,-0.6051025390625,40.6793893129771,43.00763358778626,-6.809160305343512,walk
1604240418.9490516,-0.0670166015625,0.751220703125,-0.4381103515625,38.32824427480916,-23.48854961832061,24.625954198473284,walk
1604240418.9890516,-0.4564208984375,1.066162109375,0.0234375,-24.587786259541986,63.49618320610687,-92.67175572519083,walk
1604240419.0290515,0.755859375,1.693359375,-0.0040283203125,-107.0381679389313,141.58778625954199,-23.48854961832061,walk
1604240419.0690515,-1.0867919921875,0.744873046875,0.31005859375,-37.32824427480916,19.427480916030536,-49.11450381679389,walk
1604240419.1090515,0.09130859375,0.885009765625,-0.4940185546875,11.549618320610687,-85.49618320610686,-61.48091603053435,walk
1604240419.1490514,0.08935546875,0.995361328125,-0.4122314453125,-11.076335877862595,10.938931297709924,-74.04580152671755,walk
1604240419.1890514,-0.1798095703125,0.851806640625,-0.3521728515625,-7.732824427480916,0.648854961832061,-73.99236641221374,walk
1604240419.2290514,-0.1861572265625,0.8525390625,-0.3355712890625,1.4045801526717556,-22.27480916030534,-59.82442748091603,walk
1604240419.2690513,-0.0037841796875,0.894287109375,-0.3209228515625,11.007633587786259,-22.541984732824428,-50.587786259541986,walk
1604240419.3090513,-0.0404052734375,0.911376953125,-0.2864990234375,6.793893129770993,-7.847328244274809,-39.94656488549618,walk
1604240419.3490512,-0.0833740234375,0.909423828125,-0.3553466796875,1.4961832061068703,11.412213740458014,-44.51145038167939,walk
1604240419.3890512,-0.2120361328125,0.866943359375,-0.2347412109375,-0.7480916030534351,15.885496183206106,-45.717557251908396,walk
1604240419.4290512,-0.2523193359375,0.9052734375,-0.3302001953125,3.236641221374046,-19.061068702290076,-34.404580152671755,walk
1604240419.4690511,-0.0716552734375,0.957275390625,-0.3861083984375,-0.5114503816793893,-16.106870229007633,-28.549618320610687,walk
1604240419.509051,-0.0748291015625,0.95751953125,-0.4434814453125,-9.877862595419847,-3.213740458015267,-15.320610687022901,walk
1604240419.549051,-0.1275634765625,1.0244140625,-0.4593505859375,-14.351145038167939,3.2977099236641223,-6.816793893129771,walk
1604240419.589051,-0.0028076171875,1.25,-0.4356689453125,-36.94656488549618,-9.106870229007633,17.82442748091603,walk
1604240419.629051,0.367431640625,1.36865234375,-0.3963623046875,-68.3206106870229,8.465648854961833,72.9618320610687,walk
1604240419.669051,0.470703125,1.0673828125,-0.0411376953125,-84.16793893129771,35.778625954198475,129.23664122137404,walk
1604240419.709051,-0.1646728515625,0.8974609375,-0.0274658203125,-35.6412213740458,24.748091603053435,137.2824427480916,walk
1604240419.7490509,-0.7232666015625,1.252197265625,-0.6441650390625,25.14503816793893,-32.80916030534351,117.58778625954199,walk
1604240419.7890508,-0.0677490234375,0.8427734375,-0.4793701171875,23.450381679389313,-0.8549618320610687,112.76335877862596,walk
1604240419.8290508,-0.0013427734375,0.93701171875,-0.3336181640625,53.534351145038165,33.68702290076336,85.16793893129771,walk
1604240419.8690507,-0.1322021484375,0.8701171875,-0.2257080078125,57.404580152671755,106.40458015267176,55.656488549618324,walk
1604240419.9090507,-0.1422119140625,0.679443359375,-0.1580810546875,58.30534351145038,115.42748091603053,3.5572519083969465,walk
1604240419.9490507,-0.2196044921875,0.704833984375,-0.1358642578125,57.89312977099237,104.31297709923665,-42.94656488549618,walk
1604240419.9890506,-0.4735107421875,0.690185546875,-0.1539306640625,23.786259541984734,45.13740458015267,-64.6793893129771,walk
1604240420.0290506,-0.1314697265625,0.92822265625,0.178466796875,-34.20610687022901,101.68702290076335,-99.6030534351145,walk
1604240420.0690506,1.23681640625,1.5380859375,-0.0909423828125,-40.51908396946565,80.74045801526718,-20.12213740458015,walk
1604240420.1090505,0.627685546875,0.914794921875,-0.6436767578125,55.82442748091603,14.34351145038168,6.717557251908397,walk
1604240420.1490505,-0.7440185546875,1.18798828125,-0.4307861328125,42.35114503816794,-54.06870229007634,-26.366412213740457,walk
1604240420.1890504,0.902099609375,1.6279296875,-0.0821533203125,-70.98473282442748,174.45038167938932,-3.450381679389313,walk
1604240420.2290504,-0.8297119140625,0.740966796875,-0.0906982421875,-32.51908396946565,31.85496183206107,-31.00763358778626,walk
1604240420.2690504,-0.2117919921875,0.788330078125,-0.3143310546875,14.114503816793894,-52.9236641221374,-96.3206106870229,walk
1604240420.3090503,0.019775390625,1.07958984375,-0.3128662109375,-11.01526717557252,8.435114503816793,-62.05343511450382,walk
1604240420.3490503,0.039306640625,0.79736328125,-0.4237060546875,-5.221374045801527,4.511450381679389,-61.13740458015267,walk
1604240420.3890502,-0.2100830078125,0.871826171875,-0.3868408203125,11.893129770992367,-4.66412213740458,-69.92366412213741,walk
1604240420.4290502,-0.1978759765625,0.947265625,-0.3380126953125,4.931297709923665,-0.7786259541984732,-58.29770992366412,walk
1604240420.4690502,-0.0938720703125,0.8974609375,-0.2786865234375,6.488549618320611,10.145038167938932,-57.97709923664122,walk
1604240420.5090501,-0.0208740234375,0.934326171875,-0.3016357421875,-0.7786259541984732,33.83969465648855,-55.36641221374046,walk
1604240420.54905,-0.1873779296875,0.893310546875,-0.2906494140625,-6.786259541984733,50.00763358778626,-53.93893129770992,walk
1604240420.58905,-0.2674560546875,0.8837890625,-0.2520751953125,-3.786259541984733,28.49618320610687,-46.66412213740458,walk
1604240420.62905,-0.1112060546875,0.9560546875,-0.3487548828125,-1.3435114503816794,-8.099236641221374,-36.3587786259542,walk
1604240420.66905,-0.0443115234375,1.035888671875,-0.2481689453125,-13.587786259541986,3.4198473282442747,-25.954198473282442,walk
1604240420.70905,0.02783203125,0.9501953125,-0.5093994140625,-24.66412213740458,29.106870229007633,-12.900763358778626,walk
1604240420.74905,-0.0262451171875,1.143310546875,-0.4920654296875,-23.6793893129771,23.442748091603054,-0.6106870229007634,walk
1604240420.7890499,0.198486328125,1.2265625,-0.4354248046875,-52.25190839694657,12.076335877862595,50.74809160305343,walk
1604240420.8290498,0.42578125,1.153564453125,-0.2049560546875,-79.23664122137404,3.351145038167939,119.92366412213741,walk
1604240420.8690498,0.156494140625,0.985107421875,-0.1212158203125,-43.229007633587784,35.99236641221374,145.96946564885496,walk
1604240420.9090497,-0.5601806640625,1.11083984375,-0.5718994140625,26.419847328244273,24.702290076335878,93.68702290076335,walk
1604240420.9490497,-0.2750244140625,1.01513671875,-0.3558349609375,11.389312977099237,-0.7938931297709924,119.09923664122137,walk
1604240420.9890497,-0.0836181640625,0.9248046875,-0.4000244140625,53.66412213740458,29.53435114503817,84.8473282442748,walk
1604240421.0290496,-0.0284423828125,1.021240234375,-0.2110595703125,53.6412213740458,91.40458015267176,63.3206106870229,walk
1604240421.0690496,-0.1427001953125,0.74560546875,-0.2408447265625,58.93129770992366,137.86259541984734,21.50381679389313,walk
1604240421.1090496,-0.1781005859375,0.671630859375,-0.1734619140625,56.70229007633588,141.73282442748092,-27.96946564885496,walk
1604240421.1490495,-0.4246826171875,0.714599609375,-0.1749267578125,48.38931297709924,85.47328244274809,-59.37404580152672,walk
1604240421.1890495,-0.5672607421875,0.7919921875,0.040283203125,18.68702290076336,35.465648854961835,-86.01526717557252,walk
1604240421.2290494,0.10888671875,1.291748046875,0.323974609375,-60.900763358778626,93.37404580152672,-77.78625954198473,walk
1604240421.2690494,1.4453125,1.254150390625,-0.8233642578125,98.77862595419847,-102.77099236641222,21.916030534351144,walk
1604240421.3090494,0.112548828125,0.814697265625,-0.4161376953125,81.67175572519083,-45.68702290076336,24.297709923664122,walk
1604240421.3490493,-0.6627197265625,1.52978515625,-0.0501708984375,-43.69465648854962,42.61832061068702,-60.55725190839695,walk
1604240421.3890493,1.079833984375,1.518798828125,-0.3099365234375,-39.51145038167939,104.10687022900764,20.366412213740457,walk
1604240421.4290493,-1.6063232421875,0.4013671875,0.314453125,-28.6793893129771,55.02290076335878,-70.69465648854961,walk
1604240421.4690492,0.146484375,1.279052734375,-0.2115478515625,19.53435114503817,-44.961832061068705,-76.91603053435115,walk
1604240421.5090492,0.036865234375,1.01318359375,-0.2547607421875,-8.122137404580153,5.8396946564885495,-65.57251908396947,walk
1604240421.5490491,-0.1441650390625,0.7666015625,-0.4197998046875,5.312977099236641,12.511450381679388,-65.17557251908397,walk
1604240421.589049,-0.2420654296875,0.908447265625,-0.3563232421875,14.916030534351146,-17.938931297709924,-62.63358778625954,walk
1604240421.629049,-0.1834716796875,0.892333984375,-0.3218994140625,11.572519083969466,-25.30534351145038,-48.88549618320611,walk
1604240421.669049,0.093994140625,0.902587890625,-0.3419189453125,8.396946564885496,-14.725190839694656,-39.900763358778626,walk
1604240421.709049,-0.0135498046875,0.902587890625,-0.3565673828125,1.3206106870229009,22.82442748091603,-46.0,walk
1604240421.749049,-0.2039794921875,0.872314453125,-0.3116455078125,-1.8091603053435115,43.732824427480914,-52.770992366412216,walk
1604240421.789049,-0.2969970703125,0.9150390625,-0.2017822265625,1.8778625954198473,6.427480916030534,-42.33587786259542,walk
1604240421.8290489,-0.1473388671875,0.974609375,-0.2674560546875,-1.83206106870229,-30.908396946564885,-30.65648854961832,walk
1604240421.8690488,-0.1046142578125,0.95849609375,-0.3651123046875,-8.114503816793894,-6.641221374045801,-25.778625954198475,walk
1604240421.9090488,-0.1839599609375,1.009033203125,-0.3577880859375,-15.908396946564885,-8.183206106870228,-9.83969465648855,walk
1604240421.9490488,-0.0577392578125,1.14794921875,-0.4405517578125,-20.27480916030534,-21.702290076335878,13.587786259541986,walk
1604240421.9890487,0.387451171875,1.322021484375,-0.4195556640625,-53.7557251908397,-25.51145038167939,65.70229007633588,walk
1604240422.0290487,0.669677734375,1.216552734375,-0.1114501953125,-95.0,-0.04580152671755725,136.95419847328245,walk
1604240422.0690486,0.020751953125,1.064208984375,-0.1829833984375,-53.6412213740458,30.206106870229007,156.49618320610688,walk
1604240422.1090486,-0.7479248046875,1.29931640625,-0.6864013671875,50.20610687022901,-51.458015267175576,105.70992366412214,walk
1604240422.1490486,-0.1353759765625,0.906005859375,-0.2366943359375,15.198473282442748,-7.282442748091603,116.49618320610686,walk
1604240422.1890485,0.0380859375,0.86572265625,-0.4854736328125,51.13740458015267,24.259541984732824,95.03053435114504,walk
1604240422.2290485,-0.0064697265625,0.79248046875,-0.2205810546875,52.0763358778626,97.3969465648855,64.6793893129771,walk
1604240422.2690485,-0.1102294921875,0.655029296875,-0.2218017578125,65.80152671755725,126.3587786259542,18.244274809160306,walk
1604240422.3090484,-0.1456298828125,0.7294921875,-0.1712646484375,60.908396946564885,139.61068702290078,-35.6793893129771,walk
1604240422.3490484,-0.4866943359375,0.80224609375,-0.1414794921875,49.908396946564885,73.92366412213741,-51.83969465648855,walk
1604240422.3890483,-0.6644287109375,0.662841796875,-0.0455322265625,20.068702290076335,11.526717557251908,-90.53435114503817,walk
1604240422.4290483,0.2646484375,1.277587890625,0.397216796875,-68.12213740458016,107.41221374045801,-98.45801526717557,walk
1604240422.4690483,1.75537109375,1.35693359375,-0.8812255859375,100.56488549618321,-89.3969465648855,20.72519083969466,walk
1604240422.5090482,-0.1600341796875,0.789306640625,-0.5245361328125,80.33587786259542,-58.44274809160305,29.52671755725191,walk
1604240422.5490482,-0.5567626953125,1.259521484375,0.23046875,-69.78625954198473,82.91603053435115,-53.221374045801525,walk
1604240422.5890481,0.83203125,1.39501953125,-0.1409912109375,-17.480916030534353,62.14503816793893,0.4732824427480916,walk
1604240422.629048,-1.4588623046875,0.380615234375,0.407470703125,-16.732824427480917,16.748091603053435,-78.54961832061069,walk
1604240422.669048,0.07470703125,1.183837890625,-0.2698974609375,6.229007633587786,-36.0,-75.01526717557252,walk
1604240422.709048,-0.0538330078125,0.89453125,-0.2940673828125,-0.7938931297709924,-12.091603053435115,-69.45801526717557,walk
1604240422.749048,-0.1702880859375,0.870361328125,-0.3367919921875,9.557251908396946,-17.427480916030536,-69.48091603053435,walk
1604240422.789048,-0.0716552734375,0.92431640625,-0.3238525390625,13.053435114503817,-47.656488549618324,-55.045801526717554,walk
1604240422.829048,0.049072265625,0.895263671875,-0.3270263671875,20.35114503816794,-46.267175572519086,-47.68702290076336,walk
1604240422.8690479,0.0283203125,0.91015625,-0.3773193359375,9.19083969465649,-12.816793893129772,-35.74809160305343,walk
1604240422.9090478,-0.1168212890625,0.89599609375,-0.3714599609375,3.2442748091603053,9.595419847328245,-41.06870229007634,walk
1604240422.9490478,-0.1651611328125,0.8994140625,-0.2608642578125,-4.198473282442748,11.679389312977099,-39.99236641221374,walk
1604240422.9890478,-0.1844482421875,0.92919921875,-0.2322998046875,0.44274809160305345,-13.17557251908397,-29.633587786259543,walk
1604240423.0290477,-0.1092529296875,0.9814453125,-0.3272705078125,-7.648854961832061,-12.603053435114504,-23.61832061068702,walk
1604240423.0690477,-0.0406494140625,0.960205078125,-0.3668212890625,-13.694656488549619,-4.1603053435114505,-9.931297709923664,walk
1604240423.1090477,-0.0008544921875,1.155029296875,-0.3702392578125,-27.15267175572519,9.763358778625955,4.1679389312977095,walk
1604240423.1490476,0.22607421875,1.26123046875,-0.3927001953125,-55.16030534351145,-1.5190839694656488,49.030534351145036,walk
1604240423.1890476,0.2646484375,1.268310546875,-0.2916259765625,-68.36641221374046,-2.885496183206107,105.2442748091603,walk
1604240423.2290475,-0.0118408203125,1.259033203125,0.085205078125,-45.778625954198475,-27.244274809160306,131.80152671755727,walk
1604240423.2690475,-0.3397216796875,1.11767578125,-0.4793701171875,1.7709923664122138,-45.6793893129771,119.44274809160305,walk
1604240423.3090475,-0.2347412109375,0.985107421875,-0.3831787109375,10.511450381679388,-36.38931297709924,114.09923664122137,walk
1604240423.3490474,0.039794921875,0.795166015625,-0.4058837890625,48.62595419847328,12.938931297709924,79.79389312977099,walk
1604240423.3890474,0.05908203125,0.735595703125,-0.2606201171875,53.847328244274806,70.69465648854961,47.229007633587784,walk
1604240423.4290473,-0.0159912109375,0.768310546875,-0.3060302734375,62.091603053435115,132.93893129770993,9.67175572519084,walk
1604240423.4690473,-0.2430419921875,0.721435546875,-0.2791748046875,63.83969465648855,146.74809160305344,-28.114503816793892,walk
1604240423.5090473,-0.5721435546875,0.73583984375,-0.1824951171875,55.847328244274806,78.79389312977099,-42.465648854961835,walk
1604240423.5490472,-0.4075927734375,0.80712890625,0.0654296875,29.404580152671755,62.603053435114504,-77.73282442748092,walk
1604240423.5890472,0.342529296875,1.321044921875,0.15234375,-23.236641221374047,115.02290076335878,-64.0,walk
1604240423.6290472,1.207275390625,1.29296875,-0.5772705078125,83.98473282442748,-49.43511450381679,6.442748091603053,walk
1604240423.669047,0.05126953125,1.0625,-0.5025634765625,59.3587786259542,0.9083969465648855,22.114503816793892,walk
1604240423.709047,-0.3389892578125,1.012939453125,-0.5740966796875,1.1908396946564885,22.770992366412212,-36.54961832061068,walk
1604240423.749047,0.72705078125,1.621826171875,-0.2635498046875,-94.42748091603053,155.23664122137404,-7.984732824427481,walk
1604240423.789047,-0.8524169921875,0.71875,-0.3709716796875,-28.48854961832061,25.35114503816794,-24.84732824427481,walk
1604240423.829047,-0.5911865234375,0.58154296875,-0.3182373046875,21.259541984732824,-80.4885496183206,-88.09923664122137,walk
1604240423.869047,0.182861328125,1.139892578125,-0.4420166015625,-7.8396946564885495,-18.3206106870229,-53.274809160305345,walk
1604240423.909047,-0.0191650390625,0.79150390625,-0.3963623046875,-4.229007633587786,7.358778625954199,-60.954198473282446,walk
1604240423.9490469,-0.3055419921875,0.857666015625,-0.3712158203125,5.9465648854961835,-33.916030534351144,-61.961832061068705,walk
1604240423.9890468,-0.2469482421875,0.864013671875,-0.3233642578125,13.099236641221374,-68.2442748091603,-46.88549618320611,walk
1604240424.0290468,-0.0042724609375,0.951171875,-0.3614501953125,5.282442748091603,-32.44274809160305,-39.7557251908397,walk
1604240424.0690467,0.000244140625,0.906005859375,-0.3736572265625,1.4274809160305344,-9.709923664122137,-44.74045801526717,walk
1604240424.1090467,-0.0960693359375,0.9033203125,-0.3724365234375,-5.213740458015267,23.16793893129771,-46.732824427480914,walk
1604240424.1490467,-0.2049560546875,0.9267578125,-0.2152099609375,-5.763358778625954,16.717557251908396,-42.50381679389313,walk
1604240424.1890466,-0.0958251953125,1.019775390625,-0.3048095703125,-6.755725190839694,-18.03053435114504,-30.0,walk
1604240424.2290466,-0.0452880859375,0.9658203125,-0.4024658203125,-18.16030534351145,1.702290076335878,-22.30534351145038,walk
1604240424.2690465,-0.1466064453125,1.092529296875,-0.3680419921875,-21.076335877862597,15.01526717557252,-5.656488549618321,walk
1604240424.3090465,-0.0338134765625,1.07763671875,-0.4434814453125,-25.442748091603054,-5.740458015267175,7.923664122137405,walk
1604240424.3490465,0.302490234375,1.295166015625,-0.3433837890625,-52.88549618320611,-1.4809160305343512,53.83206106870229,walk
1604240424.3890464,0.434814453125,1.07958984375,-0.2271728515625,-80.66412213740458,7.847328244274809,117.29770992366412,walk
1604240424.4290464,0.091796875,1.02734375,-0.3033447265625,-38.61068702290076,8.465648854961833,143.33587786259542,walk
1604240424.4690464,-0.3336181640625,1.20166015625,-0.6627197265625,24.72519083969466,-31.938931297709924,94.80152671755725,walk
1604240424.5090463,-0.2554931640625,0.9580078125,-0.4503173828125,34.68702290076336,8.145038167938932,110.43511450381679,walk
1604240424.5490463,-0.0242919921875,0.88671875,-0.4600830078125,53.76335877862596,59.18320610687023,80.00763358778626,walk
1604240424.5890462,-0.0306396484375,0.88427734375,-0.2864990234375,57.45038167938932,124.91603053435115,46.54961832061068,walk
1604240424.6290462,-0.0814208984375,0.72900390625,-0.3323974609375,70.95419847328245,153.1679389312977,-3.0610687022900764,walk
1604240424.6690462,-0.3101806640625,0.7158203125,-0.2515869140625,62.908396946564885,152.75572519083968,-42.10687022900763,walk
1604240424.7090461,-0.5242919921875,0.802001953125,-0.1895751953125,46.847328244274806,84.89312977099236,-63.732824427480914,walk
1604240424.749046,-0.3807373046875,0.811767578125,0.07958984375,6.068702290076335,83.04580152671755,-99.01526717557252,walk
1604240424.789046,0.49853515625,1.5224609375,0.310302734375,-88.5114503816794,151.99236641221373,-63.770992366412216,walk
1604240424.829046,0.95703125,1.235595703125,-0.8272705078125,73.05343511450381,-60.916030534351144,21.72519083969466,walk
1604240424.869046,-0.2711181640625,0.771240234375,-0.3621826171875,74.87022900763358,-71.19083969465649,29.022900763358777,walk
1604240424.909046,-0.2655029296875,1.4521484375,-0.2022705078125,-22.625954198473284,63.50381679389313,-51.282442748091604,walk
1604240424.949046,0.949462890625,1.41015625,-0.3343505859375,-48.74045801526717,139.36641221374046,-6.0458015267175576,walk
1604240424.9890459,-1.1500244140625,0.424560546875,0.158935546875,-34.79389312977099,56.81679389312977,-62.86259541984733,walk
1604240425.0290458,-0.0894775390625,1.022705078125,-0.2122802734375,15.625954198473282,-24.900763358778626,-78.09160305343511,walk
1604240425.0690458,-0.0208740234375,1.046630859375,-0.3482666015625,-8.320610687022901,-4.0,-52.10687022900763,walk
1604240425.1090457,-0.0186767578125,0.80859375,-0.4124755859375,2.2442748091603053,7.213740458015267,-65.82442748091603,walk
1604240425.1490457,-0.3131103515625,0.888671875,-0.2569580078125,6.740458015267175,-11.908396946564885,-67.9618320610687,walk
1604240425.1890457,-0.1097412109375,0.953369140625,-0.3060302734375,3.122137404580153,-28.137404580152673,-52.89312977099237,walk
1604240425.2290456,0.0234375,0.915771484375,-0.3485107421875,2.2061068702290076,-7.442748091603053,-52.717557251908396,walk
1604240425.2690456,0.013916015625,0.87890625,-0.3372802734375,0.7709923664122137,23.82442748091603,-57.30534351145038,walk
1604240425.3090456,-0.1363525390625,0.926513671875,-0.3775634765625,0.6717557251908397,33.213740458015266,-52.00763358778626,walk
1604240425.3490455,-0.3895263671875,0.90673828125,-0.3009033203125,7.984732824427481,7.687022900763359,-44.786259541984734,walk
1604240425.3890455,-0.2232666015625,0.9189453125,-0.3699951171875,-2.099236641221374,-26.519083969465647,-27.427480916030536,walk
1604240425.4290454,-0.0523681640625,0.9013671875,-0.4071044921875,-11.274809160305344,1.083969465648855,-25.328244274809162,walk
1604240425.4690454,-0.1900634765625,1.030517578125,-0.4178466796875,-18.198473282442748,23.229007633587788,-16.65648854961832,walk
1604240425.5090454,-0.0965576171875,0.96240234375,-0.3489990234375,-23.297709923664122,2.0229007633587788,-3.8091603053435112,walk
1604240425.5490453,0.06787109375,1.17041015625,-0.4659423828125,-42.19847328244275,3.0916030534351147,26.16030534351145,walk
1604240425.5890453,0.696533203125,1.51318359375,-0.4993896484375,-56.778625954198475,18.587786259541986,96.41221374045801,walk
1604240425.6290452,0.29345703125,0.774169921875,-0.2232666015625,-26.755725190839694,27.587786259541986,130.65648854961833,walk
1604240425.6690452,-0.8907470703125,0.90087890625,-0.5079345703125,29.81679389312977,-15.633587786259541,65.00763358778626,walk
1604240425.7090452,-0.6085205078125,1.43603515625,-0.2191162109375,12.114503816793894,-24.938931297709924,122.99236641221374,walk
1604240425.7490451,-0.3502197265625,0.99609375,0.052490234375,45.47328244274809,52.93893129770992,87.26717557251908,walk
1604240425.789045,-0.1895751953125,0.90283203125,-0.0352783203125,57.13740458015267,85.50381679389314,85.76335877862596,walk
1604240425.829045,-0.2462158203125,0.757080078125,-0.0755615234375,37.61832061068702,64.46564885496183,66.96946564885496,walk
1604240425.869045,-0.2667236328125,0.65185546875,-0.1192626953125,33.94656488549618,51.404580152671755,21.33587786259542,walk
1604240425.909045,-0.4444580078125,0.629150390625,-0.1436767578125,45.52671755725191,-26.51145038167939,-15.17557251908397,walk
1604240425.949045,-0.1915283203125,0.68603515625,-0.0238037109375,3.648854961832061,-13.65648854961832,-51.14503816793893,walk
1604240425.989045,0.2734375,1.181396484375,-0.1048583984375,-41.06870229007634,38.0,-73.37404580152672,walk
1604240426.0290449,0.85595703125,1.169921875,-0.5694580078125,6.412213740458015,2.786259541984733,-17.366412213740457,walk
1604240426.0690448,0.439208984375,1.1015625,-0.4898681640625,0.7251908396946565,88.26717557251908,-11.946564885496183,walk
1604240426.1090448,-0.3211669921875,0.897216796875,-0.2659912109375,44.88549618320611,-23.0381679389313,-6.603053435114504,walk
1604240426.1490448,-0.2261962890625,1.045654296875,-0.0650634765625,-2.0381679389312977,20.80916030534351,-26.099236641221374,walk
1604240426.1890447,0.0419921875,1.179931640625,-0.5255126953125,35.412213740458014,-69.0381679389313,-10.396946564885496,walk
1604240426.2290447,-0.5577392578125,0.72802734375,-0.1424560546875,-10.389312977099237,-43.916030534351144,-49.36641221374046,walk
1604240426.2690446,0.108154296875,0.928955078125,-0.5137939453125,5.648854961832061,-30.85496183206107,-69.73282442748092,walk
1604240426.3090446,0.068359375,0.9287109375,-0.4100341796875,-13.404580152671755,14.145038167938932,-59.465648854961835,walk
1604240426.3490446,-0.0882568359375,0.8232421875,-0.3543701171875,-6.885496183206107,4.396946564885496,-58.25190839694657,walk
1604240426.3890445,-0.1644287109375,0.91259765625,-0.3843994140625,7.5038167938931295,-8.34351145038168,-51.50381679389313,walk
1604240426.4290445,0.015625,0.9345703125,-0.3450927734375,-3.0610687022900764,2.9236641221374047,-45.083969465648856,walk
1604240426.4690444,0.06640625,0.917724609375,-0.3802490234375,-8.595419847328245,32.02290076335878,-45.55725190839695,walk
1604240426.5090444,-0.0950927734375,0.923828125,-0.2696533203125,-14.48091603053435,83.7557251908397,-49.55725190839695,walk
1604240426.5490444,-0.2318115234375,0.8798828125,-0.3438720703125,-9.908396946564885,60.80152671755725,-45.43511450381679,walk
1604240426.5890443,-0.1468505859375,0.892578125,-0.3175048828125,-13.534351145038167,58.43511450381679,-43.3206106870229,walk
1604240426.6290443,-0.1783447265625,0.909912109375,-0.3836669921875,-7.824427480916031,44.6793893129771,-34.66412213740458,walk
1604240426.6690443,-0.0760498046875,0.888916015625,-0.3641357421875,-15.49618320610687,45.70992366412214,-34.16793893129771,walk
1604240426.7090442,-0.3116455078125,1.053955078125,-0.3067626953125,-23.66412213740458,30.786259541984734,-10.053435114503817,walk
1604240426.7490442,-0.0838623046875,0.920654296875,-0.5150146484375,-38.87022900763359,40.20610687022901,-2.717557251908397,walk
1604240426.7890441,0.0947265625,1.17138671875,-0.4735107421875,-47.87022900763359,40.88549618320611,13.541984732824428,walk
1604240426.829044,0.129150390625,1.22265625,-0.3843994140625,-75.52671755725191,60.541984732824424,46.16030534351145,walk
1604240426.869044,0.49072265625,1.077880859375,-0.1400146484375,-87.40458015267176,76.0,94.06106870229007,walk
1604240426.909044,0.1328125,0.932373046875,-0.7767333984375,-41.32824427480916,77.83206106870229,111.59541984732824,walk
1604240426.949044,-0.5758056640625,1.057373046875,-0.6783447265625,-12.213740458015268,64.70229007633588,76.77862595419847,walk
1604240426.989044,-0.2271728515625,0.898193359375,-0.6558837890625,23.0,95.77862595419847,61.01526717557252,walk
1604240427.029044,-0.2152099609375,0.9169921875,-0.5804443359375,44.23664122137404,138.35114503816794,47.56488549618321,walk
1604240427.0690439,-0.2178955078125,0.877197265625,-0.3858642578125,46.51908396946565,178.03053435114504,18.30534351145038,walk
1604240427.1090438,-0.1744384765625,0.8193359375,-0.4163818359375,49.458015267175576,200.3969465648855,-16.954198473282442,walk
1604240427.1490438,-0.2344970703125,0.8662109375,-0.4173583984375,58.83206106870229,197.2824427480916,-34.916030534351144,walk
1604240427.1890438,-0.5211181640625,0.854248046875,-0.3665771484375,65.48091603053435,133.18320610687022,-44.0763358778626,walk
1604240427.2290437,-0.2843017578125,0.83251953125,-0.2313232421875,27.946564885496183,153.2290076335878,-63.57251908396947,walk
1604240427.2690437,0.024169921875,1.1767578125,0.005126953125,-9.17557251908397,207.29007633587787,-83.55725190839695,walk
1604240427.3090436,0.430908203125,0.998046875,-0.1390380859375,-52.900763358778626,170.15267175572518,-20.81679389312977,walk
1604240427.3490436,0.107666015625,1.057373046875,-0.8038330078125,39.541984732824424,90.05343511450381,-29.358778625954198,walk
1604240427.3890436,-0.0782470703125,0.841796875,-0.4146728515625,56.98473282442748,80.12213740458016,2.099236641221374,walk
1604240427.4290435,-0.2698974609375,0.78076171875,-0.4996337890625,22.114503816793892,119.98473282442748,-66.3969465648855,walk
1604240427.4690435,0.14208984375,1.973388671875,0.053955078125,-81.44274809160305,246.6946564885496,-38.091603053435115,walk
1604240427.5090435,-0.9971923828125,0.697509765625,0.04052734375,-18.27480916030534,11.84732824427481,-0.13740458015267176,walk
1604240427.5490434,-0.7203369140625,0.55859375,-0.1907958984375,26.34351145038168,-99.63358778625954,-70.3587786259542,walk
1604240427.5890434,0.809814453125,1.470458984375,-0.4644775390625,-8.366412213740459,7.541984732824427,-48.52671755725191,walk
1604240427.6290433,0.363037109375,0.894775390625,-0.4447021484375,-30.259541984732824,107.94656488549619,-64.09923664122137,walk
1604240427.6690433,-0.1771240234375,0.796875,-0.3975830078125,-19.69465648854962,118.53435114503817,-76.09923664122137,walk
1604240427.7090433,-0.3277587890625,0.899658203125,-0.2711181640625,-15.488549618320612,65.7175572519084,-64.31297709923665,walk
1604240427.7490432,-0.1158447265625,0.944580078125,-0.2720947265625,-12.022900763358779,52.76335877862596,-49.02290076335878,walk
1604240427.7890432,-0.1549072265625,0.98291015625,-0.3153076171875,-20.259541984732824,59.31297709923664,-55.267175572519086,walk
1604240427.8290431,-0.1304931640625,0.838623046875,-0.3358154296875,-19.893129770992367,94.45801526717557,-62.725190839694655,walk
1604240427.869043,-0.2564697265625,0.9521484375,-0.2896728515625,-26.564885496183205,120.14503816793894,-61.57251908396947,walk
1604240427.909043,-0.2821044921875,0.87646484375,-0.2987060546875,-15.885496183206106,86.56488549618321,-56.76335877862596,walk
1604240427.949043,-0.2156982421875,0.973388671875,-0.1990966796875,-21.03053435114504,65.21374045801527,-44.343511450381676,walk
1604240427.989043,-0.2293701171875,0.966552734375,-0.3297119140625,-27.564885496183205,21.49618320610687,-19.061068702290076,walk
1604240428.029043,-0.1187744140625,0.986083984375,-0.5111083984375,-40.61832061068702,60.3206106870229,-23.358778625954198,walk
1604240428.069043,-0.0228271484375,1.15966796875,-0.4666748046875,-47.61832061068702,62.786259541984734,0.7251908396946565,walk
1604240428.109043,0.019287109375,1.119873046875,-0.4840087890625,-81.47328244274809,32.00763358778626,71.4885496183206,walk
1604240428.1490428,0.27001953125,0.945068359375,-0.2430419921875,-68.35114503816794,59.961832061068705,100.95419847328245,walk
1604240428.1890428,0.09130859375,1.05615234375,-0.1849365234375,-21.51145038167939,107.73282442748092,98.90076335877863,walk
1604240428.2290428,-0.2386474609375,1.032470703125,-0.5462646484375,8.099236641221374,102.90076335877863,80.91603053435115,walk
1604240428.2690427,-0.5379638671875,1.010009765625,-0.5592041015625,17.900763358778626,106.3587786259542,91.82442748091603,walk
1604240428.3090427,-0.2510986328125,1.127197265625,-0.1536865234375,27.564885496183205,96.04580152671755,88.32824427480917,walk
1604240428.3490427,-0.0902099609375,1.03564453125,-0.1229248046875,57.10687022900763,100.77862595419847,79.8473282442748,walk
1604240428.3890426,-0.2127685546875,0.886962890625,-0.1060791015625,76.96946564885496,103.45801526717557,60.3206106870229,walk
1604240428.4290426,-0.2144775390625,0.79052734375,-0.1060791015625,70.63358778625954,80.78625954198473,31.19083969465649,walk
1604240428.4690425,-0.2738037109375,0.780517578125,-0.0936279296875,56.534351145038165,25.229007633587788,1.083969465648855,walk
1604240428.5090425,-0.2337646484375,0.72998046875,-0.0848388671875,46.396946564885496,-21.68702290076336,-25.82442748091603,walk
1604240428.5490425,-0.0072021484375,0.885498046875,0.01025390625,18.015267175572518,5.396946564885496,-62.49618320610687,walk
1604240428.5890424,0.181884765625,0.941650390625,-0.4918212890625,37.05343511450382,-54.45038167938932,-48.54961832061068,walk
1604240428.6290424,0.952880859375,1.31689453125,-0.5206298828125,26.396946564885496,10.954198473282442,0.2900763358778626,walk
1604240428.6690423,0.207763671875,0.945556640625,-0.4671630859375,27.549618320610687,-16.290076335877863,14.068702290076336,walk
1604240428.7090423,-0.4952392578125,1.023193359375,0.071044921875,-43.86259541984733,30.977099236641223,-26.81679389312977,walk
1604240428.7490423,0.2197265625,1.2109375,-0.2381591796875,-27.572519083969464,33.541984732824424,-19.770992366412212,walk
1604240428.7890422,-0.6102294921875,0.748779296875,0.12548828125,-19.374045801526716,-3.854961832061069,-69.96946564885496,walk
1604240428.8290422,0.188232421875,0.989013671875,-0.2840576171875,-6.6106870229007635,-33.458015267175576,-59.16793893129771,walk
1604240428.8690422,-0.2061767578125,0.84521484375,-0.3836669921875,-3.099236641221374,-1.3587786259541985,-63.19847328244275,walk
1604240428.9090421,-0.2164306640625,0.832275390625,-0.3465576171875,10.236641221374045,-21.083969465648856,-60.900763358778626,walk
1604240428.949042,-0.1309814453125,0.923828125,-0.3878173828125,10.15267175572519,-38.67175572519084,-51.045801526717554,walk
1604240428.989042,-0.0675048828125,0.878173828125,-0.3936767578125,11.267175572519085,-10.748091603053435,-46.87786259541985,walk
1604240429.029042,-0.1529541015625,0.9052734375,-0.3543701171875,10.15267175572519,-10.648854961832061,-37.916030534351144,walk
1604240429.069042,-0.2366943359375,0.89501953125,-0.2864990234375,8.412213740458014,-26.419847328244273,-29.633587786259543,walk
1604240429.109042,-0.1820068359375,0.904296875,-0.2784423828125,2.0916030534351147,-39.25190839694657,-17.206106870229007,walk
1604240429.149042,-0.1322021484375,0.941162109375,-0.3614501953125,3.8473282442748094,-45.229007633587784,-7.938931297709924,walk
1604240429.1890419,-0.0777587890625,0.95947265625,-0.3795166015625,-1.4809160305343512,-35.42748091603053,0.2595419847328244,walk
1604240429.2290418,-0.0516357421875,1.021484375,-0.4461669921875,-18.801526717557252,-18.297709923664122,16.389312977099237,walk
1604240429.2690418,-0.0438232421875,1.14013671875,-0.3809814453125,-25.977099236641223,-32.87786259541985,37.05343511450382,walk
1604240429.3090417,0.135986328125,1.1611328125,-0.2340087890625,-39.221374045801525,-47.0763358778626,77.42748091603053,walk
1604240429.3490417,0.269775390625,1.22998046875,-0.1995849609375,-40.89312977099237,-65.41984732824427,128.75572519083968,walk
1604240429.3890417,-0.0887451171875,1.19140625,-0.1573486328125,-16.091603053435115,-63.02290076335878,139.21374045801528,walk
1604240429.4290416,-0.6527099609375,1.111328125,-0.2169189453125,34.404580152671755,-115.32824427480917,115.22137404580153,walk
1604240429.4690416,-0.1241455078125,0.948974609375,-0.2962646484375,41.89312977099237,-72.66412213740458,100.86259541984732,walk
1604240429.5090415,0.0302734375,0.802734375,-0.1876220703125,50.74045801526717,-51.64885496183206,73.41221374045801,walk
1604240429.5490415,0.040771484375,0.762939453125,-0.1033935546875,49.48854961832061,17.30534351145038,36.12977099236641,walk
1604240429.5890415,-0.0662841796875,0.689697265625,-0.1492919921875,46.29007633587786,51.48091603053435,-7.541984732824427,walk
1604240429.6290414,-0.3939208984375,0.74072265625,-0.1895751953125,28.541984732824428,15.885496183206106,-25.427480916030536,walk
1604240429.6690414,-0.5570068359375,0.7802734375,-0.0023193359375,-4.152671755725191,-41.33587786259542,-45.083969465648856,walk
1604240429.7090414,-0.0606689453125,0.99755859375,-0.0914306640625,-3.015267175572519,-87.23664122137404,-43.847328244274806,walk
1604240429.7490413,0.8125,1.385986328125,-0.8343505859375,64.03053435114504,-131.75572519083968,-5.022900763358779,walk
1604240429.7890413,1.1298828125,1.3916015625,-0.3787841796875,-30.66412213740458,-17.38167938931298,3.6564885496183206,walk
1604240429.8290412,-0.2640380859375,1.00634765625,-0.2406005859375,-4.8396946564885495,3.618320610687023,-25.083969465648856,walk
1604240429.8690412,-0.7669677734375,0.850830078125,-0.2855224609375,27.267175572519083,-53.916030534351144,-66.78625954198473,walk
1604240429.9090412,0.209228515625,0.825927734375,-0.2095947265625,30.412213740458014,-102.3587786259542,-15.98473282442748,walk
1604240429.9490411,-0.0003662109375,0.885009765625,-0.3099365234375,8.19083969465649,3.0076335877862594,-42.847328244274806,walk
1604240429.989041,-0.2965087890625,0.865234375,0.0078125,-12.854961832061068,-70.73282442748092,-36.18320610687023,walk
1604240430.029041,-0.3914794921875,0.83544921875,-0.6287841796875,13.564885496183207,3.0763358778625953,-37.595419847328245,walk
1604240430.069041,-0.1741943359375,0.91845703125,-0.2579345703125,7.122137404580153,-30.396946564885496,-33.67175572519084,walk
1604240430.109041,-0.1876220703125,0.87890625,-0.4298095703125,15.610687022900763,-46.29007633587786,-18.580152671755727,walk
1604240430.149041,-0.1112060546875,0.88671875,-0.4014892578125,15.427480916030534,-53.778625954198475,-10.633587786259541,walk
1604240430.189041,-0.1754150390625,0.882568359375,-0.3231201171875,15.244274809160306,-47.396946564885496,-7.32824427480916,walk
1604240430.2290409,-0.2034912109375,0.8818359375,-0.3287353515625,11.992366412213741,-48.61832061068702,-11.412213740458014,walk
1604240430.2690408,-0.1617431640625,0.8916015625,-0.3199462890625,8.557251908396946,-48.97709923664122,-10.557251908396946,walk
1604240430.3090408,-0.1065673828125,0.9072265625,-0.3365478515625,7.030534351145038,-54.48091603053435,-6.885496183206107,walk
1604240430.3490407,-0.0384521484375,0.958740234375,-0.3995361328125,2.931297709923664,-44.18320610687023,3.381679389312977,walk
1604240430.3890407,-0.0150146484375,0.971435546875,-0.4332275390625,-10.114503816793894,-24.328244274809162,15.748091603053435,walk
1604240430.4290407,0.07568359375,0.975830078125,-0.4105224609375,-15.229007633587786,-25.450381679389313,38.48091603053435,walk
1604240430.4690406,0.324951171875,1.23681640625,-0.2557373046875,-57.10687022900763,-46.6793893129771,99.83206106870229,walk
1604240430.5090406,0.04638671875,1.18798828125,0.04248046875,-42.76335877862596,-68.70992366412214,145.87786259541986,walk
1604240430.5490406,-0.1961669921875,1.307373046875,-0.3094482421875,1.0916030534351144,-111.0,152.21374045801528,walk
1604240430.5890405,-0.5443115234375,1.29248046875,-0.1302490234375,33.10687022900763,-124.77862595419847,124.93129770992367,walk
1604240430.6290405,-0.0968017578125,0.8359375,-0.4195556640625,53.465648854961835,-87.35114503816794,113.32824427480917,walk
1604240430.6690404,0.140625,0.879150390625,-0.1234130859375,38.42748091603053,-22.587786259541986,82.26717557251908,walk
1604240430.7090404,0.07470703125,0.80810546875,-0.0992431640625,33.99236641221374,44.595419847328245,37.541984732824424,walk
1604240430.7490404,-0.1173095703125,0.707275390625,-0.0562744140625,28.33587786259542,50.45038167938932,6.66412213740458,walk
1604240430.7890403,-0.4398193359375,0.581298828125,-0.1112060546875,28.061068702290076,-20.52671755725191,-10.65648854961832,walk
1604240430.8290403,-0.3394775390625,0.765380859375,-0.0760498046875,-1.8549618320610688,-70.56488549618321,-31.66412213740458,walk
1604240430.8690403,0.10595703125,1.038818359375,-0.2916259765625,5.259541984732825,-59.20610687022901,-65.23664122137404,walk
1604240430.9090402,0.911376953125,1.304443359375,-0.3939208984375,0.8778625954198473,-47.93129770992366,-23.793893129770993,walk
1604240430.9490402,0.896240234375,1.325439453125,-0.4334716796875,-9.114503816793894,-34.80152671755725,9.969465648854962,walk
1604240430.9890401,-0.2938232421875,0.895263671875,-0.1859130859375,20.412213740458014,-53.732824427480914,-15.893129770992367,walk
1604240431.02904,-0.4339599609375,1.30908203125,-0.3218994140625,19.61832061068702,-63.717557251908396,-73.45801526717557,walk
1604240431.06904,0.435546875,0.40478515625,-0.7005615234375,107.26717557251908,-195.19847328244273,-14.961832061068701,walk
1604240431.10904,-0.3072509765625,0.709228515625,-0.3983154296875,-1.0229007633587786,14.221374045801527,-45.42748091603053,walk
1604240431.14904,-0.3743896484375,0.849609375,-0.3472900390625,-15.633587786259541,-72.74045801526718,-47.12213740458015,walk
1604240431.18904,-0.1427001953125,0.910400390625,-0.5574951171875,-2.984732824427481,21.328244274809162,-39.282442748091604,walk
1604240431.22904,-0.1947021484375,0.876220703125,-0.1978759765625,0.7251908396946565,-72.50381679389314,-21.946564885496183,walk
1604240431.2690399,-0.1573486328125,0.91015625,-0.4439697265625,15.099236641221374,-77.36641221374046,-7.6183206106870225,walk
1604240431.3090398,0.010009765625,0.908203125,-0.3721923828125,9.17557251908397,-80.01526717557252,-4.534351145038168,walk
1604240431.3490398,0.046875,0.9365234375,-0.3841552734375,1.7786259541984732,-30.732824427480917,-18.083969465648856,walk
1604240431.3890398,0.06103515625,0.916259765625,-0.3538818359375,-4.0534351145038165,-3.0,-23.198473282442748,walk
1604240431.4290397,-0.0364990234375,0.908203125,-0.2916259765625,-4.908396946564886,15.931297709923664,-25.786259541984734,walk
1604240431.4690397,-0.0611572265625,0.9521484375,-0.3238525390625,-4.366412213740458,6.022900763358779,-21.862595419847327,walk
1604240431.5090396,-0.1824951171875,1.04296875,-0.2625732421875,-15.725190839694656,-0.1984732824427481,-14.435114503816793,walk
1604240431.5490396,-0.0089111328125,0.98583984375,-0.2750244140625,-18.450381679389313,13.709923664122137,14.48091603053435,walk
1604240431.5890396,0.320556640625,1.117431640625,-0.4722900390625,-49.221374045801525,13.633587786259541,53.404580152671755,walk
1604240431.6290395,0.44384765625,1.22802734375,-0.3807373046875,-90.22900763358778,31.450381679389313,87.96946564885496,walk
1604240431.6690395,-0.1617431640625,1.336669921875,-0.2139892578125,-80.91603053435115,18.763358778625953,124.30534351145039,walk
1604240431.7090394,-0.1119384765625,1.06884765625,-0.4532470703125,-34.19083969465649,-24.938931297709924,133.13740458015266,walk
1604240431.7490394,-0.4246826171875,0.966064453125,-0.8177490234375,32.02290076335878,-48.343511450381676,109.31297709923665,walk
1604240431.7890394,0.094970703125,0.798828125,-0.6275634765625,52.76335877862596,79.62595419847328,69.82442748091603,walk
1604240431.8290393,0.09375,0.7900390625,-0.5970458984375,52.13740458015267,172.54198473282443,27.3206106870229,walk
1604240431.8690393,-0.1614990234375,0.764892578125,-0.5216064453125,59.51145038167939,221.85496183206106,-16.793893129770993,walk
1604240431.9090393,-0.2552490234375,0.694580078125,-0.3963623046875,69.20610687022901,232.25190839694656,-47.89312977099237,walk
1604240431.9490392,-0.5423583984375,0.76220703125,-0.4254150390625,77.94656488549619,166.80152671755727,-66.98473282442748,walk
1604240431.9890392,-0.5277099609375,0.96337890625,-0.0946044921875,51.86259541984733,134.54961832061068,-88.90839694656489,walk
1604240432.0290391,0.016845703125,1.14306640625,0.0986328125,3.3740458015267176,169.3969465648855,-90.96946564885496,walk
1604240432.069039,0.365478515625,1.044189453125,-0.2320556640625,6.076335877862595,76.68702290076335,-48.61832061068702,walk
1604240432.109039,0.3427734375,1.0791015625,-0.7205810546875,37.56488549618321,68.1145038167939,-39.66412213740458,walk
1604240432.149039,0.259765625,0.8056640625,-0.8516845703125,55.61832061068702,95.87786259541984,-13.679389312977099,walk
1604240432.189039,-0.3319091796875,1.02880859375,-0.3182373046875,-71.29007633587786,212.87022900763358,-81.92366412213741,walk
1604240432.229039,-0.2647705078125,1.39697265625,0.13623046875,-100.68702290076335,147.35114503816794,-28.6793893129771,walk
1604240432.269039,-1.0623779296875,0.60205078125,0.1591796875,-12.717557251908397,54.282442748091604,-83.64885496183206,walk
1604240432.3090389,0.396728515625,1.302001953125,-0.2681884765625,-0.5419847328244275,-4.770992366412214,-58.16030534351145,walk
1604240432.3490388,0.041748046875,0.864990234375,-0.4127197265625,-11.259541984732824,73.44274809160305,-67.80916030534351,walk
1604240432.3890388,-0.2786865234375,0.83349609375,-0.4288330078125,-3.717557251908397,49.64885496183206,-70.05343511450381,walk
1604240432.4290388,-0.2384033203125,0.916015625,-0.2257080078125,-2.7709923664122136,29.412213740458014,-58.961832061068705,walk
1604240432.4690387,-0.1138916015625,0.91650390625,-0.2681884765625,1.0458015267175573,34.6412213740458,-56.86259541984733,walk
1604240432.5090387,-0.0560302734375,0.855712890625,-0.3145751953125,-3.8931297709923665,57.89312977099237,-60.7557251908397,walk
1604240432.5490386,-0.2010498046875,0.9111328125,-0.3341064453125,-7.083969465648855,61.98473282442748,-59.23664122137404,walk
1604240432.5890386,-0.3267822265625,0.892822265625,-0.3292236328125,-2.1526717557251906,39.29007633587786,-50.41984732824427,walk
1604240432.6290386,-0.1258544921875,0.9326171875,-0.3614501953125,-2.816793893129771,15.236641221374045,-41.17557251908397,walk
1604240432.6690385,-0.0628662109375,0.988037109375,-0.3375244140625,-10.01526717557252,27.198473282442748,-33.56488549618321,walk
1604240432.7090385,-0.2115478515625,0.94921875,-0.4605712890625,-29.358778625954198,32.961832061068705,-25.206106870229007,walk
1604240432.7490385,-0.1119384765625,1.150146484375,-0.5184326171875,-26.458015267175572,12.969465648854962,-19.389312977099237,walk
1604240432.7890384,0.08154296875,1.184326171875,-0.4276123046875,-38.282442748091604,-8.763358778625955,30.14503816793893,walk
1604240432.8290384,0.40576171875,1.17626953125,-0.1759033203125,-68.0381679389313,15.549618320610687,90.26717557251908,walk
1604240432.8690383,0.34375,0.986572265625,-0.2364501953125,-16.587786259541986,63.091603053435115,110.41984732824427,walk
1604240432.9090383,-0.0975341796875,1.274169921875,-0.1895751953125,-18.49618320610687,70.99236641221374,113.61832061068702,walk
1604240432.9490383,-0.6915283203125,1.255615234375,-0.3841552734375,10.335877862595419,11.732824427480915,115.41984732824427,walk
1604240432.9890382,-0.3355712890625,0.89208984375,-0.0770263671875,41.12213740458015,-8.648854961832061,120.55725190839695,walk
1604240433.0290382,0.025146484375,1.008544921875,-0.0535888671875,62.14503816793893,-4.67175572519084,114.74809160305344,walk
1604240433.0690382,0.034423828125,0.9052734375,-0.0325927734375,68.03053435114504,44.89312977099237,77.20610687022901,walk
1604240433.109038,-0.0897216796875,0.70751953125,-0.1009521484375,50.68702290076336,59.0763358778626,37.2442748091603,walk
1604240433.149038,-0.2633056640625,0.67626953125,-0.1334228515625,56.221374045801525,-0.3969465648854962,5.519083969465649,walk
1604240433.189038,-0.2471923828125,0.697509765625,-0.1136474609375,53.33587786259542,-53.76335877862596,-15.86259541984733,walk
1604240433.229038,-0.0335693359375,0.78076171875,-0.1512451171875,12.19083969465649,-31.954198473282442,-58.56488549618321,walk
1604240433.269038,0.3515625,1.043701171875,-0.1507568359375,-27.786259541984734,40.29007633587786,-87.72519083969466,walk
1604240433.309038,1.084228515625,1.50146484375,-0.6461181640625,20.48854961832061,-48.48854961832061,-15.648854961832061,walk
1604240433.349038,0.5546875,1.092529296875,-0.4395751953125,32.37404580152672,27.12213740458015,12.709923664122137,walk
1604240433.3890378,-0.6021728515625,1.13037109375,-0.2608642578125,13.473282442748092,-99.41984732824427,-27.061068702290076,walk
1604240433.4290378,0.53076171875,1.123046875,-0.2169189453125,-109.12213740458016,147.51908396946564,-34.62595419847328,walk
1604240433.4690378,-0.2344970703125,1.22314453125,-0.0987548828125,-35.83969465648855,-39.038167938931295,-17.00763358778626,walk
1604240433.5090377,-0.2847900390625,0.62548828125,-0.3687744140625,-5.526717557251908,-49.87022900763359,-60.69465648854962,walk
1604240433.5490377,0.035888671875,1.149658203125,-0.4796142578125,-7.320610687022901,-20.81679389312977,-59.05343511450382,walk
1604240433.5890377,-0.0640869140625,0.824951171875,-0.3453369140625,-5.694656488549619,-14.816793893129772,-59.9236641221374,walk
1604240433.6290376,-0.3345947265625,0.876953125,-0.3651123046875,1.0076335877862594,-42.48091603053435,-64.90076335877863,walk
1604240433.6690376,-0.1307373046875,0.915771484375,-0.3980712890625,-1.297709923664122,-47.79389312977099,-58.49618320610687,walk
1604240433.7090375,-0.1090087890625,0.831298828125,-0.3831787109375,3.068702290076336,-15.13740458015267,-51.01526717557252,walk
1604240433.7490375,-0.1156005859375,0.89306640625,-0.3065185546875,5.015267175572519,-8.022900763358779,-43.14503816793893,walk
1604240433.7890375,-0.1419677734375,0.9208984375,-0.2843017578125,0.3511450381679389,-20.282442748091604,-31.015267175572518,walk
1604240433.8290374,-0.1116943359375,0.89892578125,-0.3067626953125,-0.17557251908396945,-24.87786259541985,-21.83969465648855,walk
1604240433.8690374,0.003173828125,0.931884765625,-0.3419189453125,0.9923664122137404,-19.82442748091603,-25.198473282442748,walk
1604240433.9090374,-0.0689697265625,0.9609375,-0.4639892578125,-7.923664122137405,-15.534351145038167,-16.984732824427482,walk
1604240433.9490373,-0.0924072265625,1.04443359375,-0.4656982421875,-20.450381679389313,-16.419847328244273,3.572519083969466,walk
1604240433.9890373,-0.0045166015625,1.367919921875,-0.4403076171875,-36.6412213740458,-27.83206106870229,43.3206106870229,walk
1604240434.0290372,0.403076171875,1.31884765625,-0.1063232421875,-54.85496183206107,-41.88549618320611,105.70229007633588,walk
1604240434.0690372,0.072021484375,1.172607421875,0.009521484375,-43.48854961832061,-49.23664122137404,159.31297709923663,walk
1604240434.1090372,-0.4542236328125,1.257080078125,-0.2579345703125,23.198473282442748,-103.12977099236642,137.65648854961833,walk
1604240434.1490371,-0.2637939453125,1.146484375,-0.2657470703125,19.358778625954198,-51.038167938931295,134.31297709923663,walk
1604240434.189037,-0.0008544921875,0.840576171875,-0.3353271484375,47.587786259541986,-42.908396946564885,105.17557251908397,walk
1604240434.229037,-0.0401611328125,0.798095703125,-0.2047119140625,49.13740458015267,33.213740458015266,72.78625954198473,walk
1604240434.269037,-0.0198974609375,0.697509765625,-0.2130126953125,58.16030534351145,80.12213740458016,33.00763358778626,walk
1604240434.309037,-0.1434326171875,0.58349609375,-0.2467041015625,57.51908396946565,86.54198473282443,-8.458015267175572,walk
1604240434.349037,-0.6414794921875,0.6318359375,-0.2327880859375,45.14503816793893,2.7251908396946565,-32.152671755725194,walk
1604240434.389037,-0.4571533203125,0.751220703125,-0.0140380859375,26.236641221374047,-8.854961832061068,-79.4885496183206,walk
1604240434.4290369,0.30322265625,1.10302734375,0.023681640625,-8.587786259541986,19.259541984732824,-75.38931297709924,walk
1604240434.4690368,1.577880859375,1.546630859375,-0.7650146484375,24.35114503816794,-50.67175572519084,-3.816793893129771,walk
1604240434.5090368,0.39892578125,0.970703125,-0.5640869140625,54.56488549618321,9.267175572519085,3.1374045801526718,walk
1604240434.5490367,-0.7786865234375,1.325439453125,-0.1339111328125,-7.786259541984733,-37.51145038167939,-27.18320610687023,walk
1604240434.5890367,0.51611328125,1.162109375,-0.2510986328125,-119.99236641221374,147.18320610687022,-25.80916030534351,walk
1604240434.6290367,-0.5670166015625,1.291015625,-0.4342041015625,-1.8396946564885497,-30.51145038167939,-12.076335877862595,walk
1604240434.6690366,0.022705078125,0.64453125,-0.2447509765625,-5.259541984732825,-29.923664122137403,-41.25954198473283,walk
1604240434.7090366,-0.3072509765625,0.964111328125,-0.5748291015625,-0.21374045801526717,-4.106870229007634,-33.67175572519084,walk
1604240434.7490366,-0.1827392578125,0.822998046875,-0.4393310546875,11.083969465648854,-36.56488549618321,-42.45038167938932,walk
1604240434.7890365,-0.2244873046875,0.94580078125,-0.3702392578125,8.221374045801527,-54.38167938931298,-48.83969465648855,walk
1604240434.8290365,-0.1444091796875,0.90185546875,-0.3548583984375,5.885496183206107,-39.38167938931298,-48.847328244274806,walk
1604240434.8690364,-0.1182861328125,0.876220703125,-0.3594970703125,6.3816793893129775,-28.977099236641223,-42.229007633587784,walk
1604240434.9090364,-0.1365966796875,0.8740234375,-0.3436279296875,14.610687022900763,-44.045801526717554,-32.847328244274806,walk
1604240434.9490364,-0.0894775390625,0.89892578125,-0.3514404296875,6.015267175572519,-53.900763358778626,-16.549618320610687,walk
1604240434.9890363,-0.1246337890625,0.944091796875,-0.3048095703125,5.396946564885496,-54.51908396946565,-7.267175572519084,walk
1604240435.0290363,-0.0177001953125,0.928466796875,-0.3753662109375,4.198473282442748,-42.12977099236641,-4.183206106870229,walk
1604240435.0690362,-0.0567626953125,0.906005859375,-0.4293212890625,-3.5801526717557253,-36.534351145038165,2.763358778625954,walk
1604240435.1090362,-0.1419677734375,0.966796875,-0.4178466796875,-12.694656488549619,-26.114503816793892,18.114503816793892,walk
1604240435.1490362,-0.1180419921875,1.1416015625,-0.3614501953125,-16.435114503816795,-62.86259541984733,43.778625954198475,walk
1604240435.1890361,0.251220703125,1.231201171875,-0.1614990234375,-31.709923664122137,-70.77862595419847,86.3969465648855,walk
1604240435.229036,0.32275390625,1.412109375,0.15234375,-46.267175572519086,-77.30534351145039,161.42748091603053,walk
1604240435.269036,-0.6053466796875,1.17333984375,-0.1641845703125,-5.450381679389313,-135.96946564885496,155.08396946564886,walk
1604240435.309036,-0.6002197265625,1.142333984375,-0.1783447265625,34.16030534351145,-177.5267175572519,127.58015267175573,walk
1604240435.349036,-0.0330810546875,0.85888671875,-0.3109130859375,57.51145038167939,-125.49618320610686,111.80152671755725,walk
1604240435.389036,0.1357421875,0.8505859375,-0.2115478515625,33.10687022900763,-46.54961832061068,80.45801526717557,walk
1604240435.429036,0.004638671875,0.777099609375,-0.1290283203125,26.045801526717558,2.6564885496183206,45.0763358778626,walk
1604240435.4690359,-0.0653076171875,0.66943359375,-0.1412353515625,13.15267175572519,38.152671755725194,5.2748091603053435,walk
1604240435.5090358,-0.4161376953125,0.622314453125,-0.1219482421875,7.763358778625954,-24.885496183206108,-15.893129770992367,walk
1604240435.5490358,-0.6739501953125,0.626953125,-0.2835693359375,25.83969465648855,-169.7709923664122,-25.99236641221374,walk
1604240435.5890357,-0.0999755859375,0.85595703125,-0.3006591796875,31.610687022900763,-171.73282442748092,-43.847328244274806,walk
1604240435.6290357,1.094970703125,1.364501953125,-1.0577392578125,85.27480916030534,-156.06106870229007,-16.206106870229007,walk
1604240435.6690357,1.032470703125,1.083740234375,-0.7325439453125,3.099236641221374,-8.946564885496183,-1.6793893129770991,walk
1604240435.7090356,0.216552734375,1.15966796875,-0.1549072265625,-23.015267175572518,15.748091603053435,6.00763358778626,walk
1604240435.7490356,-0.5560302734375,1.091796875,-0.2315673828125,-5.236641221374046,-14.022900763358779,-20.15267175572519,walk
1604240435.7890356,0.2626953125,0.96728515625,-0.3309326171875,-0.5190839694656488,-64.91603053435115,34.32824427480916,walk
1604240435.8290355,-0.4862060546875,0.912109375,0.18408203125,-19.229007633587788,-6.893129770992366,-10.091603053435115,walk
1604240435.8690355,-0.0755615234375,0.9609375,-0.4027099609375,-0.35877862595419846,-80.58778625954199,-28.931297709923665,walk
1604240435.9090354,-0.1361083984375,0.999755859375,-0.4674072265625,-11.312977099236642,-35.38167938931298,-18.82442748091603,walk
1604240435.9490354,-0.2061767578125,0.843505859375,-0.4105224609375,-2.4732824427480917,-47.76335877862596,-24.938931297709924,walk
1604240435.9890354,-0.2691650390625,0.905029296875,-0.4420166015625,0.9007633587786259,-73.51908396946565,-30.450381679389313,walk
1604240436.0290353,-0.1439208984375,0.892822265625,-0.4178466796875,1.2671755725190839,-72.59541984732824,-32.778625954198475,walk
1604240436.0690353,0.038330078125,0.916748046875,-0.3885498046875,-5.114503816793893,-34.42748091603053,-35.19083969465649,walk
1604240436.1090353,0.04833984375,0.91748046875,-0.3853759765625,-10.213740458015268,-13.992366412213741,-34.282442748091604,walk
1604240436.1490352,-0.0526123046875,0.89208984375,-0.4056396484375,-13.572519083969466,-5.511450381679389,-23.427480916030536,walk
1604240436.1890352,-0.1458740234375,1.010498046875,-0.3228759765625,-10.17557251908397,-25.885496183206108,-11.587786259541986,walk
1604240436.2290351,-0.1234130859375,0.92578125,-0.3155517578125,-14.282442748091603,-31.83969465648855,-6.068702290076335,walk
1604240436.269035,-0.0379638671875,0.902099609375,-0.3338623046875,-22.106870229007633,-5.450381679389313,-7.572519083969466,walk
1604240436.309035,-0.1417236328125,0.950927734375,-0.2833251953125,-26.442748091603054,1.2671755725190839,1.2366412213740459,walk
1604240436.349035,-0.0323486328125,0.896728515625,-0.4776611328125,-32.79389312977099,9.396946564885496,15.236641221374045,walk
1604240436.389035,0.289306640625,1.171630859375,-0.5159912109375,-48.3587786259542,-3.984732824427481,40.458015267175576,walk
1604240436.429035,0.631103515625,1.34619140625,-0.2454833984375,-83.31297709923665,19.610687022900763,103.40458015267176,walk
1604240436.469035,0.22119140625,1.24951171875,-0.2618408203125,-56.88549618320611,38.67175572519084,135.8091603053435,walk
1604240436.5090349,-0.4322509765625,0.98486328125,-0.5343017578125,0.05343511450381679,-8.511450381679388,112.5114503816794,walk
1604240436.5490348,-0.2000732421875,0.99658203125,-0.5897216796875,38.50381679389313,17.458015267175572,120.83969465648855,walk
1604240436.5890348,-0.0579833984375,0.8447265625,-0.5992431640625,56.80916030534351,72.79389312977099,61.94656488549618,walk
1604240436.6290348,0.11767578125,0.853271484375,-0.4385986328125,50.969465648854964,167.06106870229007,27.84732824427481,walk
1604240436.6690347,-0.1983642578125,0.68896484375,-0.4478759765625,70.09160305343511,191.04580152671755,-15.48091603053435,walk
1604240436.7090347,-0.0892333984375,0.70703125,-0.4810791015625,69.63358778625954,211.82442748091603,-55.79389312977099,walk
1604240436.7490346,-0.5159912109375,0.881103515625,-0.2332763671875,56.10687022900763,124.89312977099236,-63.29007633587786,walk
1604240436.7890346,-0.3641357421875,0.8291015625,-0.2342529296875,37.778625954198475,103.32824427480917,-65.16030534351145,walk
1604240436.8290346,0.23095703125,1.1826171875,0.123291015625,8.450381679389313,146.45801526717557,-60.267175572519086,walk
1604240436.8690345,0.001220703125,0.80712890625,-0.7476806640625,85.73282442748092,-72.58778625954199,-25.778625954198475,walk
1604240436.9090345,0.548095703125,1.0908203125,-0.5531005859375,36.6793893129771,59.6412213740458,-18.297709923664122,walk
1604240436.9490345,0.245361328125,0.868408203125,-0.6710205078125,32.900763358778626,56.48091603053435,-24.755725190839694,walk
1604240436.9890344,-0.4005126953125,0.785888671875,-0.3555908203125,-45.0763358778626,125.90076335877863,-87.69465648854961,walk
1604240437.0290344,-0.0404052734375,1.53857421875,0.0439453125,-130.8320610687023,161.68702290076337,-56.58015267175573,walk
1604240437.0690343,-0.6729736328125,0.924560546875,-0.0487060546875,-5.343511450381679,-40.62595419847328,-8.610687022900763,walk
1604240437.1090343,0.30126953125,0.84716796875,-0.2535400390625,10.442748091603054,-88.49618320610686,-56.38931297709924,walk
1604240437.1490343,-0.1129150390625,1.00146484375,-0.4686279296875,-7.137404580152672,43.44274809160305,-51.74045801526717,walk
1604240437.1890342,-0.2755126953125,0.83837890625,-0.4041748046875,-0.9847328244274809,12.969465648854962,-67.74045801526718,walk
1604240437.2290342,-0.3951416015625,0.94091796875,-0.2388916015625,3.366412213740458,-22.83969465648855,-71.2824427480916,walk
1604240437.2690341,-0.1307373046875,0.8916015625,-0.3067626953125,8.717557251908397,-33.19083969465649,-63.3206106870229,walk
1604240437.309034,0.019775390625,0.888671875,-0.3843994140625,5.778625954198473,-5.641221374045801,-56.11450381679389,walk
1604240437.349034,-0.0115966796875,0.893798828125,-0.3531494140625,7.793893129770993,9.702290076335878,-55.00763358778626,walk
1604240437.389034,-0.1766357421875,0.89453125,-0.3192138671875,3.1755725190839694,14.740458015267176,-48.0763358778626,walk
1604240437.429034,-0.1795654296875,0.931884765625,-0.2039794921875,4.748091603053435,-16.931297709923665,-32.18320610687023,walk
1604240437.469034,-0.0645751953125,0.966064453125,-0.4371337890625,-2.9160305343511452,-24.923664122137403,-16.52671755725191,walk
1604240437.509034,-0.0438232421875,0.9658203125,-0.4451904296875,-16.47328244274809,9.564885496183207,-13.030534351145038,walk
1604240437.5490339,-0.1759033203125,1.021240234375,-0.4803466796875,-17.80916030534351,-3.480916030534351,-2.267175572519084,walk
1604240437.5890338,0.04736328125,1.24365234375,-0.4554443359375,-31.061068702290076,-9.083969465648854,31.66412213740458,walk
1604240437.6290338,0.5712890625,1.2607421875,-0.2933349609375,-70.02290076335878,-13.045801526717558,105.80916030534351,walk
1604240437.6690338,0.427001953125,1.052490234375,-0.0284423828125,-44.900763358778626,21.03053435114504,154.0916030534351,walk
1604240437.7090337,-0.4891357421875,1.138671875,-0.1715087890625,0.2595419847328244,-14.82442748091603,126.93129770992367,walk
1604240437.7490337,-0.5382080078125,1.371826171875,-0.5206298828125,14.259541984732824,-29.801526717557252,133.5114503816794,walk
1604240437.7890337,-0.1273193359375,0.91259765625,-0.4332275390625,56.48854961832061,-31.076335877862597,117.16030534351145,walk
1604240437.8290336,-0.0186767578125,0.982666015625,-0.1842041015625,54.74809160305343,21.33587786259542,87.7557251908397,walk
1604240437.8690336,-0.0155029296875,0.722900390625,-0.0799560546875,55.465648854961835,72.8854961832061,41.908396946564885,walk
1604240437.9090335,-0.0533447265625,0.587158203125,-0.0970458984375,41.61068702290076,109.47328244274809,-23.00763358778626,walk
1604240437.9490335,-0.4205322265625,0.65771484375,-0.1849365234375,35.30534351145038,55.89312977099237,-53.41984732824427,walk
1604240437.9890335,-0.5572509765625,0.707275390625,-0.1151123046875,5.068702290076335,-40.16030534351145,-78.19847328244275,walk
1604240438.0290334,0.160400390625,1.12744140625,0.13623046875,-74.74809160305344,37.02290076335878,-75.34351145038168,walk
1604240438.0690334,1.6328125,1.475830078125,-0.7593994140625,46.87786259541985,-32.80152671755725,36.725190839694655,walk
1604240438.1090333,0.098876953125,0.970458984375,-0.3077392578125,54.18320610687023,-50.0,2.1068702290076335,walk
1604240438.1490333,-0.5716552734375,1.130126953125,-0.0162353515625,12.938931297709924,-67.55725190839695,-11.038167938931299,walk
1604240438.1890333,0.88818359375,1.055908203125,-0.2757568359375,-77.38167938931298,140.3740458015267,-12.16030534351145,walk
1604240438.2290332,-0.5780029296875,0.969482421875,-0.1668701171875,-33.916030534351144,17.450381679389313,-30.977099236641223,walk
1604240438.2690332,-0.1468505859375,0.903076171875,-0.3714599609375,6.793893129770993,-29.549618320610687,-72.38167938931298,walk
1604240438.3090332,-0.0550537109375,0.99658203125,-0.4010009765625,-5.0,2.145038167938931,-64.94656488549619,walk
1604240438.349033,-0.1260986328125,0.833740234375,-0.3775634765625,-1.0687022900763359,2.16793893129771,-62.656488549618324,walk
1604240438.389033,-0.2855224609375,0.872314453125,-0.3936767578125,9.610687022900763,-25.68702290076336,-62.06870229007634,walk
1604240438.429033,-0.1234130859375,0.9130859375,-0.3504638671875,11.412213740458014,-36.3587786259542,-50.85496183206107,walk
1604240438.469033,0.013427734375,0.868408203125,-0.3621826171875,12.267175572519085,-14.610687022900763,-44.99236641221374,walk
1604240438.509033,-0.0223388671875,0.898193359375,-0.3421630859375,10.770992366412214,-3.2977099236641223,-44.961832061068705,walk
1604240438.549033,-0.1605224609375,0.885986328125,-0.3687744140625,4.717557251908397,-3.6106870229007635,-38.80152671755725,walk
1604240438.589033,-0.2081298828125,0.900146484375,-0.2989501953125,1.0381679389312977,-20.198473282442748,-28.14503816793893,walk
1604240438.6290329,-0.1495361328125,0.927001953125,-0.3399658203125,1.9618320610687023,-36.06106870229008,-24.366412213740457,walk
1604240438.6690328,-0.1087646484375,0.96142578125,-0.3348388671875,-3.5877862595419847,-18.12213740458015,-23.259541984732824,walk
1604240438.7090328,-0.1978759765625,0.92578125,-0.4383544921875,-8.007633587786259,-11.526717557251908,-11.816793893129772,walk
1604240438.7490327,-0.1763916015625,1.070068359375,-0.3856201171875,-9.320610687022901,-22.66412213740458,6.374045801526718,walk
1604240438.7890327,-0.1326904296875,1.16650390625,-0.3526611328125,-25.34351145038168,-37.19847328244275,41.93893129770992,walk
1604240438.8290327,0.4892578125,1.381103515625,-0.2174072265625,-64.6412213740458,-24.374045801526716,106.13740458015268,walk
1604240438.8690326,0.393798828125,1.1767578125,0.043212890625,-47.458015267175576,-6.320610687022901,153.65648854961833,walk
1604240438.9090326,-0.4937744140625,1.06298828125,-0.1055908203125,12.84732824427481,-75.17557251908397,128.44274809160305,walk
1604240438.9490325,-0.4610595703125,1.229248046875,-0.3392333984375,-3.4656488549618323,-63.06870229007634,123.54961832061069,walk
1604240438.9890325,-0.1007080078125,0.946533203125,-0.4664306640625,42.458015267175576,-54.0,113.77862595419847,walk
1604240439.0290325,0.00732421875,0.90234375,-0.2047119140625,48.961832061068705,-8.885496183206106,98.12977099236642,walk
1604240439.0690324,-0.0174560546875,0.779052734375,-0.1446533203125,50.01526717557252,62.12977099236641,52.85496183206107,walk
1604240439.1090324,0.03466796875,0.70458984375,-0.1798095703125,35.16793893129771,95.8854961832061,-0.9847328244274809,walk
1604240439.1490324,-0.3902587890625,0.72216796875,-0.1285400390625,28.50381679389313,63.229007633587784,-37.02290076335878,walk
1604240439.1890323,-0.3775634765625,0.704345703125,0.060302734375,-13.694656488549619,30.671755725190838,-68.6793893129771,walk
1604240439.2290323,0.32177734375,1.25244140625,0.155517578125,-98.13740458015268,129.61832061068702,-101.42748091603053,walk
1604240439.2690322,1.361328125,1.26220703125,-0.8677978515625,43.458015267175576,57.396946564885496,-5.893129770992366,walk
1604240439.3090322,-0.3792724609375,0.933837890625,-0.1121826171875,52.656488549618324,-85.4885496183206,13.450381679389313,walk
1604240439.3490322,-0.8292236328125,1.165283203125,-0.0384521484375,28.770992366412212,-109.98473282442748,-24.557251908396946,walk
1604240439.3890321,1.16552734375,1.174560546875,-0.2894287109375,-54.900763358778626,35.465648854961835,-16.053435114503817,walk
1604240439.429032,-0.3245849609375,1.298095703125,-0.3929443359375,-29.480916030534353,93.38167938931298,-26.27480916030534,walk
1604240439.469032,-0.3463134765625,0.66943359375,-0.0250244140625,-6.236641221374046,39.58015267175573,-78.57251908396947,walk
1604240439.509032,-0.3240966796875,1.027587890625,-0.2520751953125,2.7022900763358777,1.1145038167938932,-66.64885496183206,walk
1604240439.549032,-0.0687255859375,0.916015625,-0.3187255859375,8.717557251908397,-23.748091603053435,-46.48091603053435,walk
1604240439.589032,-0.1602783203125,0.884521484375,-0.3599853515625,15.122137404580153,-41.656488549618324,-52.01526717557252,walk
1604240439.629032,-0.1500244140625,0.930908203125,-0.3577880859375,13.709923664122137,-47.61068702290076,-43.396946564885496,walk
1604240439.6690319,-0.1109619140625,0.886474609375,-0.3497314453125,15.977099236641221,-38.76335877862596,-39.20610687022901,walk
1604240439.7090318,-0.0538330078125,0.919677734375,-0.3389892578125,17.52671755725191,-29.709923664122137,-37.6412213740458,walk
1604240439.7490318,-0.0167236328125,0.932861328125,-0.3616943359375,7.137404580152672,-30.99236641221374,-31.251908396946565,walk
1604240439.7890317,-0.0743408203125,0.923095703125,-0.3218994140625,2.7251908396946565,-17.72519083969466,-23.045801526717558,walk
1604240439.8290317,-0.0457763671875,0.99609375,-0.3465576171875,0.26717557251908397,-26.19083969465649,-22.068702290076335,walk
1604240439.8690317,-0.1619873046875,0.94873046875,-0.3670654296875,-14.641221374045802,-13.84732824427481,-22.51145038167939,walk
1604240439.9090316,-0.0531005859375,0.96533203125,-0.3404541015625,-15.83969465648855,-0.03816793893129771,-13.618320610687023,walk
1604240439.9490316,-0.0028076171875,0.956787109375,-0.5201416015625,-20.786259541984734,13.65648854961832,5.603053435114504,walk
1604240439.9890316,0.246826171875,1.278564453125,-0.3736572265625,-43.70229007633588,8.404580152671755,34.221374045801525,walk
1604240440.0290315,0.2783203125,1.38232421875,-0.3194580078125,-72.18320610687023,8.16030534351145,96.6793893129771,walk
1604240440.0690315,0.092529296875,1.11572265625,-0.1829833984375,-62.17557251908397,-12.580152671755725,142.91603053435114,walk
1604240440.1090314,-0.2589111328125,1.042236328125,-0.5504150390625,-2.1374045801526718,-27.671755725190838,112.7175572519084,walk
1604240440.1490314,-0.0296630859375,0.979248046875,-0.4720458984375,12.908396946564885,1.83206106870229,91.0381679389313,walk
1604240440.1890314,-0.0364990234375,0.812744140625,-0.6514892578125,37.083969465648856,69.98473282442748,78.81679389312977,walk
1604240440.2290313,-0.0181884765625,0.8427734375,-0.4715576171875,49.74809160305343,121.32824427480917,44.16030534351145,walk
1604240440.2690313,-0.1500244140625,0.809326171875,-0.4427490234375,64.45038167938931,179.05343511450383,8.442748091603054,walk
1604240440.3090312,-0.1153564453125,0.808349609375,-0.5284423828125,68.6793893129771,193.86259541984734,-18.96946564885496,walk
1604240440.3490312,-0.4747314453125,0.8662109375,-0.3912353515625,74.94656488549619,157.48091603053436,-39.57251908396947,walk
1604240440.3890312,-0.4056396484375,0.864501953125,-0.2127685546875,46.79389312977099,136.65648854961833,-58.54961832061068,walk
1604240440.4290311,0.111083984375,1.104736328125,-0.1300048828125,4.297709923664122,192.4885496183206,-71.25954198473282,walk
1604240440.469031,0.323974609375,0.96337890625,-0.2530517578125,20.16793893129771,152.59541984732823,-48.732824427480914,walk
1604240440.509031,0.10498046875,0.820068359375,-0.7203369140625,49.50381679389313,122.5114503816794,-61.44274809160305,walk
1604240440.549031,0.2529296875,0.883544921875,-0.5211181640625,14.145038167938932,166.75572519083968,-33.29007633587786,walk
1604240440.589031,-0.2645263671875,0.650146484375,-0.6417236328125,46.37404580152672,74.09160305343511,-48.49618320610687,walk
1604240440.629031,-0.3416748046875,1.138916015625,0.098876953125,-2.3282442748091605,250.12977099236642,-130.58778625954199,walk
1604240440.669031,-0.0677490234375,1.960693359375,0.346435546875,-78.70229007633588,148.5114503816794,-25.358778625954198,walk
1604240440.7090309,-0.8228759765625,0.4873046875,0.0712890625,4.793893129770993,-3.015267175572519,-24.00763358778626,walk
1604240440.7490308,-0.0892333984375,0.930419921875,-0.5467529296875,23.48854961832061,-92.93129770992367,-42.02290076335878,walk
1604240440.7890308,0.3212890625,0.98779296875,-0.5836181640625,7.9465648854961835,25.564885496183205,-49.916030534351144,walk
1604240440.8290308,0.196533203125,0.94970703125,-0.5372314453125,-16.251908396946565,123.21374045801527,-60.99236641221374,walk
1604240440.8690307,-0.3070068359375,0.89013671875,-0.3785400390625,-14.061068702290076,149.8854961832061,-72.58015267175573,walk
1604240440.9090307,-0.4976806640625,0.901611328125,-0.1456298828125,-5.603053435114504,86.02290076335878,-65.37404580152672,walk
1604240440.9490306,-0.2640380859375,0.91015625,-0.2481689453125,-5.3816793893129775,46.97709923664122,-60.50381679389313,walk
1604240440.9890306,-0.0396728515625,0.940673828125,-0.3939208984375,-10.541984732824428,55.412213740458014,-55.656488549618324,walk
1604240441.0290306,0.069091796875,0.908203125,-0.4864501953125,-20.31297709923664,110.89312977099236,-54.786259541984734,walk
1604240441.0690305,-0.2332763671875,0.90625,-0.3336181640625,-29.389312977099237,141.84732824427482,-51.30534351145038,walk
1604240441.1090305,-0.3414306640625,0.949951171875,-0.3060302734375,-24.977099236641223,111.77862595419847,-39.74045801526717,walk
1604240441.1490304,-0.3006591796875,0.94482421875,-0.2974853515625,-20.53435114503817,77.80916030534351,-35.19083969465649,walk
1604240441.1890304,-0.1783447265625,0.948486328125,-0.2833251953125,-26.99236641221374,85.90076335877863,-23.458015267175572,walk
1604240441.2290304,-0.1822509765625,0.951416015625,-0.2977294921875,-33.50381679389313,86.69465648854961,-12.83206106870229,walk
1604240441.2690303,-0.2926025390625,0.89697265625,-0.3126220703125,-31.50381679389313,75.3587786259542,-3.312977099236641,walk
1604240441.3090303,-0.1715087890625,0.905517578125,-0.3843994140625,-28.81679389312977,51.48091603053435,8.610687022900763,walk
1604240441.3490303,0.10986328125,0.9765625,-0.2916259765625,-28.251908396946565,58.412213740458014,23.984732824427482,walk
1604240441.3890302,0.118896484375,1.02587890625,-0.5579833984375,-38.603053435114504,69.10687022900764,46.23664122137404,walk
1604240441.4290302,0.109130859375,1.193603515625,-0.3338623046875,-70.10687022900764,121.58778625954199,50.43511450381679,walk
1604240441.4690301,0.2080078125,1.082275390625,-0.2691650390625,-82.89312977099236,119.35114503816794,74.09160305343511,walk
1604240441.50903,0.018798828125,1.052490234375,-0.5201416015625,-50.725190839694655,126.16030534351145,74.08396946564885,walk
1604240441.54903,-0.3031005859375,0.7919921875,-0.7403564453125,2.213740458015267,123.50381679389314,41.80152671755725,walk
1604240441.58903,-0.2479248046875,0.903564453125,-0.3275146484375,3.099236641221374,144.98473282442748,30.33587786259542,walk
1604240441.62903,-0.0206298828125,0.970947265625,-0.2374267578125,25.427480916030536,148.1908396946565,37.2442748091603,walk
1604240441.66903,0.03466796875,0.915771484375,-0.2344970703125,44.93893129770992,157.70229007633588,25.9618320610687,walk
1604240441.70903,-0.0582275390625,0.88818359375,-0.2081298828125,68.49618320610686,135.29770992366412,12.870229007633588,walk
1604240441.7490299,-0.0220947265625,0.978271484375,-0.1861572265625,76.17557251908397,133.38167938931298,9.122137404580153,walk
1604240441.7890298,-0.1807861328125,0.955078125,-0.1536865234375,72.76335877862596,89.3206106870229,-0.0916030534351145,walk
1604240441.8290298,-0.0845947265625,0.952880859375,-0.1043701171875,59.595419847328245,59.88549618320611,-15.938931297709924,walk
1604240441.8690298,0.01513671875,0.9169921875,-0.1297607421875,53.16030534351145,33.61068702290076,-27.068702290076335,walk
1604240441.9090297,0.115234375,0.934814453125,-0.0450439453125,49.969465648854964,36.86259541984733,-38.221374045801525,walk
1604240441.9490297,0.18994140625,0.960693359375,-0.1876220703125,42.3206106870229,-2.8396946564885495,-26.46564885496183,walk
1604240441.9890296,0.36865234375,1.038818359375,-0.3631591796875,29.603053435114504,8.374045801526718,-8.801526717557252,walk
1604240442.0290296,0.365478515625,1.13525390625,-0.3690185546875,16.374045801526716,22.450381679389313,-0.732824427480916,walk
1604240442.0690296,0.0703125,0.9794921875,-0.1915283203125,-15.992366412213741,32.847328244274806,-5.091603053435114,walk
1604240442.1090295,-0.4029541015625,1.0546875,-0.1099853515625,-0.9083969465648855,-44.64885496183206,-10.694656488549619,walk
1604240442.1490295,0.3203125,0.71728515625,-0.3548583984375,-3.4885496183206106,-30.564885496183205,-4.366412213740458,walk
1604240442.1890295,-0.2281494140625,1.04736328125,-0.2196044921875,-21.328244274809162,-60.87786259541985,-16.129770992366414,walk
1604240442.2290294,-0.0118408203125,0.959228515625,-0.3226318359375,2.381679389312977,-58.091603053435115,-42.3206106870229,walk
1604240442.2690294,0.135498046875,0.978271484375,-0.3441162109375,-7.587786259541985,2.8244274809160306,-48.916030534351144,walk
1604240442.3090293,-0.2266845703125,0.911865234375,-0.3282470703125,-4.6183206106870225,-10.366412213740459,-44.14503816793893,walk
1604240442.3490293,-0.1824951171875,0.8876953125,-0.4178466796875,5.534351145038168,-43.48854961832061,-45.961832061068705,walk
1604240442.3890293,-0.1092529296875,0.94970703125,-0.3646240234375,6.923664122137405,-52.14503816793893,-41.31297709923664,walk
1604240442.4290292,-0.0235595703125,0.911865234375,-0.3328857421875,3.015267175572519,-32.43511450381679,-47.87022900763359,walk
1604240442.4690292,0.01220703125,0.916259765625,-0.3472900390625,3.7251908396946565,-8.427480916030534,-48.31297709923664,walk
1604240442.5090292,-0.0882568359375,0.90234375,-0.3167724609375,0.9694656488549618,-2.572519083969466,-45.534351145038165,walk
1604240442.549029,-0.0784912109375,0.907470703125,-0.3006591796875,1.4274809160305344,-13.854961832061068,-37.0763358778626,walk
1604240442.589029,-0.0950927734375,0.9052734375,-0.3504638671875,2.931297709923664,-25.893129770992367,-25.763358778625953,walk
1604240442.629029,-0.0086669921875,0.925048828125,-0.2928466796875,-1.6946564885496183,-27.83969465648855,-19.221374045801525,walk
1604240442.669029,-0.0716552734375,0.94140625,-0.3975830078125,-13.938931297709924,-7.320610687022901,-6.732824427480916,walk
1604240442.709029,-0.1441650390625,1.00146484375,-0.3839111328125,-24.358778625954198,-8.374045801526718,9.129770992366412,walk
1604240442.749029,0.00244140625,1.222412109375,-0.5064697265625,-33.099236641221374,-11.816793893129772,29.893129770992367,walk
1604240442.789029,0.46630859375,1.283203125,-0.3677978515625,-56.05343511450382,-17.99236641221374,87.42748091603053,walk
1604240442.8290288,0.43310546875,1.246337890625,0.15087890625,-54.56488549618321,-9.572519083969466,144.70229007633588,walk
1604240442.8690288,-0.2479248046875,1.007080078125,-0.3438720703125,-7.854961832061068,-14.244274809160306,138.2290076335878,walk
1604240442.9090288,-0.6939697265625,1.2470703125,-0.3885498046875,34.083969465648856,-83.30534351145039,121.45038167938931,walk
1604240442.9490287,-0.2430419921875,0.80712890625,-0.4893798828125,49.51908396946565,-17.81679389312977,104.98473282442748,walk
1604240442.9890287,0.043212890625,0.85693359375,-0.2547607421875,53.82442748091603,-3.1603053435114505,82.34351145038168,walk
1604240443.0290287,0.03955078125,0.775390625,-0.1258544921875,57.33587786259542,67.35114503816794,40.70992366412214,walk
1604240443.0690286,-0.0242919921875,0.630615234375,-0.1568603515625,46.16030534351145,100.19083969465649,-19.31297709923664,walk
1604240443.1090286,-0.2747802734375,0.718994140625,-0.1771240234375,41.29007633587786,72.0,-42.33587786259542,walk
1604240443.1490285,-0.6412353515625,0.64013671875,-0.1929931640625,37.45038167938932,-39.19083969465649,-56.45038167938932,walk
1604240443.1890285,-0.1512451171875,0.90673828125,0.0107421875,-5.450381679389313,-11.007633587786259,-87.16793893129771,walk
1604240443.2290285,1.115966796875,1.406494140625,-0.7108154296875,28.34351145038168,-79.16030534351145,-40.06106870229008,walk
1604240443.2690284,0.93212890625,1.0966796875,-0.5457763671875,45.43511450381679,-16.87786259541985,-2.900763358778626,walk
1604240443.3090284,-0.1107177734375,0.876708984375,-0.4830322265625,33.85496183206107,8.625954198473282,24.12213740458015,walk
1604240443.3490283,-0.3057861328125,0.9873046875,0.025634765625,-43.45038167938932,55.47328244274809,-58.0,walk
1604240443.3890283,0.515380859375,1.261962890625,-0.4400634765625,-99.27480916030534,133.78625954198472,-31.419847328244273,walk
1604240443.4290283,-0.6951904296875,0.88916015625,0.29150390625,-42.33587786259542,49.969465648854964,-44.35114503816794,walk
1604240443.4690282,0.005859375,0.837646484375,-0.2645263671875,7.076335877862595,-69.00763358778626,-40.25190839694657,walk
1604240443.5090282,-0.0799560546875,1.06787109375,-0.5108642578125,-3.3053435114503817,0.8396946564885496,-41.458015267175576,walk
1604240443.5490282,-0.2764892578125,0.80517578125,-0.4376220703125,8.396946564885496,-18.748091603053435,-43.54961832061068,walk
1604240443.5890281,-0.2332763671875,0.938232421875,-0.3841552734375,6.511450381679389,-47.786259541984734,-45.908396946564885,walk
1604240443.629028,-0.1319580078125,0.916015625,-0.3238525390625,4.122137404580153,-47.36641221374046,-43.23664122137404,walk
1604240443.669028,-0.0369873046875,0.89453125,-0.3367919921875,4.557251908396947,-39.52671755725191,-38.02290076335878,walk
1604240443.709028,-0.1109619140625,0.91064453125,-0.3582763671875,4.870229007633588,-44.282442748091604,-30.458015267175572,walk
1604240443.749028,-0.0848388671875,0.909912109375,-0.3607177734375,4.938931297709924,-54.412213740458014,-21.396946564885496,walk
1604240443.789028,0.031005859375,0.921142578125,-0.3865966796875,6.748091603053435,-56.99236641221374,-6.435114503816794,walk
1604240443.829028,-0.0086669921875,0.9033203125,-0.3521728515625,-0.8702290076335878,-38.35114503816794,9.725190839694656,walk
1604240443.8690279,-0.0535888671875,0.872802734375,-0.4300537109375,-16.0,-27.84732824427481,24.450381679389313,walk
1604240443.9090278,-0.0494384765625,1.203369140625,-0.2908935546875,-17.83969465648855,-31.6793893129771,42.43511450381679,walk
1604240443.9490278,0.24755859375,1.27978515625,-0.1815185546875,-28.03053435114504,-61.50381679389313,88.62595419847328,walk
1604240443.9890277,0.517333984375,1.283935546875,0.002197265625,-27.564885496183205,-82.97709923664122,153.46564885496184,walk
1604240444.0290277,-0.1490478515625,1.296875,-0.0968017578125,12.404580152671755,-87.06870229007633,155.61832061068702,walk
1604240444.0690277,-0.8958740234375,1.201171875,-0.0748291015625,31.732824427480917,-123.91603053435115,120.33587786259542,walk
1604240444.1090276,-0.1019287109375,0.861328125,-0.5340576171875,65.94656488549619,-107.41984732824427,111.66412213740458,walk
1604240444.1490276,0.03173828125,0.803466796875,-0.1109619140625,42.29007633587786,-67.80152671755725,82.56488549618321,walk
1604240444.1890275,0.120849609375,0.75048828125,-0.1885986328125,36.06106870229008,22.633587786259543,27.84732824427481,walk
1604240444.2290275,-0.0174560546875,0.67822265625,-0.1021728515625,12.312977099236642,42.541984732824424,-5.549618320610687,walk
1604240444.2690275,-0.4974365234375,0.652099609375,-0.1090087890625,10.488549618320612,-5.3816793893129775,-28.633587786259543,walk
1604240444.3090274,-0.6141357421875,0.642578125,-0.0462646484375,8.992366412213741,-120.22900763358778,-35.43511450381679,walk
1604240444.3490274,-0.1856689453125,0.780029296875,-0.3787841796875,37.63358778625954,-185.38931297709922,-43.81679389312977,walk
1604240444.3890274,1.3994140625,1.596923828125,-0.8485107421875,35.778625954198475,-125.46564885496183,3.687022900763359,walk
1604240444.4290273,0.904541015625,1.2421875,-0.6878662109375,3.236641221374046,-30.206106870229007,20.18320610687023,walk
1604240444.4690273,-0.2672119140625,1.061279296875,-0.1907958984375,-16.633587786259543,-2.6259541984732824,-5.511450381679389,walk
1604240444.5090272,-0.5604248046875,0.973876953125,-0.3267822265625,7.236641221374046,-64.33587786259542,-39.786259541984734,walk
