accel_x,accel_y,accel_z,gyro_x,gyro_y,gyro_z,label
1604239923.1375923,-0.6949462890625,0.275634765625,-0.1370849609375,-5.67175572519084,-11.541984732824428,-32.82442748091603,pressup
1604239923.1775923,-0.8868408203125,0.21826171875,-0.0601806640625,-7.145038167938932,-7.679389312977099,-33.01526717557252,pressup
1604239923.2175922,-0.8831787109375,0.236083984375,-0.0811767578125,-7.900763358778626,-13.931297709923664,-36.80152671755725,pressup
1604239923.2575922,-0.8746337890625,0.14013671875,0.01904296875,-7.343511450381679,0.6870229007633588,-36.11450381679389,pressup
1604239923.2975922,-1.1182861328125,0.130859375,0.050537109375,-4.152671755725191,-5.847328244274809,-32.778625954198475,pressup
1604239923.3375921,-1.0074462890625,0.0712890625,0.05859375,-4.572519083969466,-16.519083969465647,-31.18320610687023,pressup
1604239923.377592,-0.9964599609375,0.11962890625,0.02490234375,-0.8320610687022901,-7.175572519083969,-23.908396946564885,pressup
1604239923.417592,-1.0867919921875,0.0673828125,0.093505859375,0.0916030534351145,-25.793893129770993,-15.022900763358779,pressup
1604239923.457592,-0.9925537109375,0.103271484375,0.043701171875,4.641221374045801,-23.33587786259542,-13.717557251908397,pressup
1604239923.497592,-1.0718994140625,0.053466796875,0.076171875,4.1679389312977095,-21.396946564885496,-11.297709923664122,pressup
1604239923.537592,-0.9593505859375,0.071533203125,0.015869140625,4.213740458015267,-11.83969465648855,-12.206106870229007,pressup
1604239923.577592,-1.0616455078125,0.093994140625,0.063232421875,1.4351145038167938,-5.1679389312977095,-9.274809160305344,pressup
1604239923.6175919,-1.0118408203125,0.0908203125,0.025390625,0.3435114503816794,2.7938931297709924,-10.969465648854962,pressup
1604239923.6575918,-1.0191650390625,0.049072265625,0.01611328125,-3.145038167938931,8.473282442748092,-6.236641221374046,pressup
1604239923.6975918,-1.0426025390625,0.020751953125,0.03759765625,-1.5114503816793894,7.694656488549619,-0.3435114503816794,pressup
1604239923.7375917,-1.1004638671875,0.0166015625,0.016845703125,-1.0763358778625953,7.114503816793893,1.4198473282442747,pressup
1604239923.7775917,-1.1229248046875,0.01904296875,0.03515625,0.8320610687022901,6.427480916030534,3.549618320610687,pressup
1604239923.8175917,-1.0313720703125,0.0283203125,-0.0401611328125,0.8931297709923665,1.5038167938931297,8.923664122137405,pressup
1604239923.8575916,-1.0968017578125,0.036376953125,0.008056640625,2.7099236641221376,7.465648854961832,14.854961832061068,pressup
1604239923.8975916,-1.1402587890625,0.052734375,0.03466796875,5.083969465648855,3.633587786259542,17.35114503816794,pressup
1604239923.9375916,-1.0357666015625,0.05517578125,0.0068359375,3.114503816793893,-1.2442748091603053,19.80916030534351,pressup
1604239923.9775915,-0.9537353515625,0.0615234375,-0.0089111328125,2.045801526717557,8.625954198473282,22.786259541984734,pressup
1604239924.0175915,-0.9884033203125,0.103515625,-0.0040283203125,1.618320610687023,7.458015267175573,22.778625954198475,pressup
1604239924.0575914,-0.9659423828125,0.11328125,-0.0225830078125,0.42748091603053434,9.50381679389313,22.671755725190838,pressup
1604239924.0975914,-0.9429931640625,0.121826171875,-0.0238037109375,0.9541984732824428,11.038167938931299,23.290076335877863,pressup
1604239924.1375914,-0.9422607421875,0.178955078125,0.00146484375,3.4885496183206106,8.702290076335878,25.65648854961832,pressup
1604239924.1775913,-0.9722900390625,0.192138671875,-0.0384521484375,2.549618320610687,0.31297709923664124,27.015267175572518,pressup
1604239924.2175913,-0.8721923828125,0.164306640625,-0.0535888671875,2.0381679389312977,4.938931297709924,25.458015267175572,pressup
1604239924.2575912,-0.8497314453125,0.180419921875,-0.0179443359375,2.946564885496183,9.229007633587786,23.259541984732824,pressup
1604239924.2975912,-0.7879638671875,0.2412109375,-0.0340576171875,3.7786259541984735,11.061068702290076,13.725190839694656,pressup
1604239924.3375912,-0.7791748046875,0.2265625,-0.0491943359375,2.66412213740458,11.900763358778626,9.526717557251908,pressup
1604239924.3775911,-0.6600341796875,0.255615234375,-0.1065673828125,1.8396946564885497,8.67175572519084,1.8854961832061068,pressup
1604239924.417591,-0.6678466796875,0.2939453125,-0.1038818359375,-0.31297709923664124,11.251908396946565,-11.099236641221374,pressup
1604239924.457591,-0.7115478515625,0.25732421875,-0.1346435546875,-3.0229007633587788,4.595419847328245,-19.46564885496183,pressup
1604239924.497591,-0.6815185546875,0.23486328125,-0.1732177734375,-3.8244274809160306,0.8625954198473282,-26.35114503816794,pressup
1604239924.537591,-0.7740478515625,0.204833984375,-0.1495361328125,-4.320610687022901,1.282442748091603,-23.03053435114504,pressup
1604239924.577591,-0.9422607421875,0.146728515625,-0.1129150390625,-1.2061068702290076,-2.4732824427480917,-22.022900763358777,pressup
1604239924.617591,-1.0531005859375,0.10986328125,-0.0814208984375,-1.381679389312977,-21.47328244274809,-26.954198473282442,pressup
1604239924.6575909,-0.9281005859375,0.1142578125,-0.0987548828125,0.3511450381679389,-13.488549618320612,-28.99236641221374,pressup
1604239924.6975908,-1.0028076171875,0.102783203125,-0.0174560546875,2.4732824427480917,-11.320610687022901,-26.80916030534351,pressup
1604239924.7375908,-1.0223388671875,0.07080078125,0.012451171875,2.0610687022900764,-19.442748091603054,-25.519083969465647,pressup
1604239924.7775908,-1.0794677734375,0.120361328125,-0.0245361328125,2.282442748091603,-8.793893129770993,-28.47328244274809,pressup
1604239924.8175907,-1.0159912109375,0.080810546875,0.022705078125,2.404580152671756,-21.931297709923665,-20.251908396946565,pressup
1604239924.8575907,-0.9671630859375,0.06884765625,-0.0164794921875,2.183206106870229,-23.419847328244273,-21.458015267175572,pressup
1604239924.8975906,-0.9442138671875,0.049072265625,-0.0201416015625,0.8854961832061069,-16.236641221374047,-12.961832061068701,pressup
1604239924.9375906,-0.9537353515625,0.02392578125,-0.0076904296875,1.984732824427481,-11.076335877862595,-9.83969465648855,pressup
1604239924.9775906,-1.0799560546875,-0.0084228515625,0.0048828125,2.5267175572519083,-12.366412213740459,-12.129770992366412,pressup
1604239925.0175905,-1.0330810546875,0.00146484375,0.02587890625,1.7557251908396947,-6.534351145038168,-9.992366412213741,pressup
1604239925.0575905,-1.1683349609375,-0.0408935546875,0.044921875,-1.0381679389312977,-12.49618320610687,-4.557251908396947,pressup
1604239925.0975904,-1.0902099609375,0.052734375,0.03955078125,-0.15267175572519084,-0.12213740458015267,5.717557251908397,pressup
1604239925.1375904,-1.0628662109375,0.02587890625,0.046142578125,-0.816793893129771,-1.5648854961832062,12.335877862595419,pressup
1604239925.1775904,-1.1546630859375,0.026123046875,0.10595703125,2.7786259541984735,10.007633587786259,8.603053435114504,pressup
1604239925.2175903,-1.2169189453125,0.04931640625,0.0673828125,1.2366412213740459,-1.8931297709923665,13.374045801526718,pressup
1604239925.2575903,-1.0413818359375,0.03173828125,0.092529296875,2.2519083969465647,1.7328244274809161,18.114503816793892,pressup
1604239925.2975903,-1.0289306640625,0.0771484375,0.1005859375,0.7022900763358778,6.068702290076335,21.748091603053435,pressup
1604239925.3375902,-0.9803466796875,0.085693359375,0.02099609375,0.5954198473282443,2.7786259541984735,28.748091603053435,pressup
1604239925.3775902,-0.9998779296875,0.035400390625,0.047607421875,2.6564885496183206,9.045801526717558,30.6793893129771,pressup
1604239925.4175901,-0.9862060546875,0.059326171875,0.032470703125,8.961832061068701,10.129770992366412,28.908396946564885,pressup
1604239925.45759,-1.0177001953125,0.119384765625,0.017333984375,7.847328244274809,-4.442748091603053,32.36641221374046,pressup
1604239925.49759,-0.8905029296875,0.137451171875,0.03466796875,7.702290076335878,5.114503816793893,29.80916030534351,pressup
1604239925.53759,-0.8858642578125,0.220703125,0.0234375,4.870229007633588,2.6946564885496183,30.045801526717558,pressup
1604239925.57759,-0.8096923828125,0.209716796875,0.025146484375,1.8625954198473282,2.6564885496183206,25.564885496183205,pressup
1604239925.61759,-0.6517333984375,0.186767578125,-0.0738525390625,-2.450381679389313,16.625954198473284,13.83206106870229,pressup
1604239925.65759,-0.6302490234375,0.17431640625,-0.0489501953125,-1.16793893129771,25.893129770992367,-0.31297709923664124,pressup
1604239925.6975899,-0.7061767578125,0.192626953125,-0.0850830078125,-0.2366412213740458,11.908396946564885,-6.190839694656488,pressup
1604239925.7375898,-0.7054443359375,0.229736328125,-0.0447998046875,2.877862595419847,4.648854961832061,-16.786259541984734,pressup
1604239925.7775898,-0.7017822265625,0.27197265625,-0.0897216796875,3.4122137404580153,-1.5038167938931297,-22.259541984732824,pressup
1604239925.8175898,-0.7718505859375,0.25830078125,-0.0426025390625,2.1068702290076335,-4.244274809160306,-20.03053435114504,pressup
1604239925.8575897,-0.8758544921875,0.17236328125,-0.0618896484375,-2.045801526717557,-9.641221374045802,-19.46564885496183,pressup
1604239925.8975897,-0.9456787109375,0.15625,-0.0404052734375,-1.8549618320610688,-6.374045801526718,-23.18320610687023,pressup
1604239925.9375896,-0.9415283203125,0.08203125,-0.0675048828125,-3.3282442748091605,-14.145038167938932,-26.450381679389313,pressup
1604239925.9775896,-0.9932861328125,0.087890625,-0.0081787109375,-0.4961832061068702,-4.320610687022901,-27.30534351145038,pressup
1604239926.0175896,-0.9429931640625,0.028076171875,-0.0157470703125,-1.450381679389313,-12.694656488549619,-25.603053435114504,pressup
1604239926.0575895,-0.9542236328125,0.049560546875,0.0185546875,0.3511450381679389,1.9541984732824427,-27.85496183206107,pressup
1604239926.0975895,-1.0555419921875,0.028076171875,0.03173828125,-0.8778625954198473,-10.65648854961832,-24.557251908396946,pressup
1604239926.1375895,-0.9429931640625,0.052001953125,0.007080078125,-1.1908396946564885,-4.1603053435114505,-23.46564885496183,pressup
1604239926.1775894,-0.9998779296875,0.040283203125,-0.0035400390625,-1.2748091603053435,-5.557251908396947,-19.53435114503817,pressup
1604239926.2175894,-1.0291748046875,0.015625,0.00439453125,0.22137404580152673,0.7633587786259542,-18.16030534351145,pressup
1604239926.2575893,-1.1021728515625,-0.0052490234375,0.04052734375,0.5419847328244275,-2.4198473282442747,-12.580152671755725,pressup
1604239926.2975893,-1.1138916015625,-0.0130615234375,0.029541015625,1.916030534351145,-4.8396946564885495,-10.381679389312977,pressup
1604239926.3375893,-1.1202392578125,-0.0301513671875,0.037353515625,0.35877862595419846,-1.0534351145038168,-7.213740458015267,pressup
1604239926.3775892,-1.0694580078125,-0.0179443359375,0.01416015625,0.4198473282442748,-4.534351145038168,-0.5572519083969466,pressup
1604239926.4175892,-1.0572509765625,-0.0257568359375,0.008544921875,1.251908396946565,-1.2366412213740459,2.1755725190839694,pressup
1604239926.4575891,-1.1087646484375,0.025634765625,0.039794921875,3.198473282442748,3.282442748091603,6.297709923664122,pressup
1604239926.497589,-1.1221923828125,-0.0311279296875,0.007568359375,0.0,-2.687022900763359,11.450381679389313,pressup
1604239926.537589,-1.0538330078125,0.003662109375,0.03076171875,1.9389312977099236,1.9694656488549618,13.916030534351146,pressup
1604239926.577589,-1.0882568359375,-0.0208740234375,0.01611328125,1.6030534351145038,0.31297709923664124,20.129770992366414,pressup
1604239926.617589,-1.1053466796875,0.01904296875,0.0185546875,2.8091603053435112,-0.7786259541984732,22.374045801526716,pressup
1604239926.657589,-1.0272216796875,0.01123046875,-0.0140380859375,1.8244274809160306,1.3740458015267176,26.557251908396946,pressup
1604239926.697589,-1.0601806640625,0.029296875,0.0126953125,2.6717557251908395,0.46564885496183206,28.259541984732824,pressup
1604239926.737589,-1.0020751953125,0.0322265625,0.000732421875,3.1526717557251906,-4.183206106870229,30.267175572519083,pressup
1604239926.7775888,-0.9422607421875,0.08447265625,0.01513671875,5.068702290076335,2.1374045801526718,31.99236641221374,pressup
1604239926.8175888,-0.9312744140625,0.13720703125,-0.0010986328125,2.435114503816794,-1.5648854961832062,32.3206106870229,pressup
1604239926.8575888,-0.8765869140625,0.2001953125,0.003662109375,1.7328244274809161,6.8320610687022905,28.17557251908397,pressup
1604239926.8975887,-0.8411865234375,0.217041015625,-0.0152587890625,-1.83206106870229,5.038167938931298,27.610687022900763,pressup
1604239926.9375887,-0.7418212890625,0.182373046875,-0.0181884765625,-1.8778625954198473,7.862595419847328,20.106870229007633,pressup
1604239926.9775887,-0.7462158203125,0.218017578125,-0.0118408203125,-0.9312977099236641,8.610687022900763,13.106870229007633,pressup
1604239927.0175886,-0.7159423828125,0.19140625,-0.0418701171875,-0.6793893129770993,2.030534351145038,6.145038167938932,pressup
1604239927.0575886,-0.6451416015625,0.177001953125,-0.0423583984375,0.19083969465648856,9.633587786259541,-6.33587786259542,pressup
1604239927.0975885,-0.8035888671875,0.23974609375,-0.0526123046875,-0.15267175572519084,6.763358778625954,-15.114503816793894,pressup
1604239927.1375885,-0.6898193359375,0.233642578125,-0.0301513671875,0.916030534351145,-2.145038167938931,-19.85496183206107,pressup
1604239927.1775885,-0.8062744140625,0.15380859375,-0.0435791015625,-1.0610687022900764,-7.740458015267175,-21.076335877862597,pressup
1604239927.2175884,-0.8050537109375,0.217041015625,-0.0343017578125,-0.3893129770992366,-2.3053435114503817,-26.938931297709924,pressup
1604239927.2575884,-0.8455810546875,0.13330078125,-0.0211181640625,-0.8778625954198473,-3.7938931297709924,-27.541984732824428,pressup
1604239927.2975883,-0.9984130859375,0.101806640625,0.01318359375,-0.17557251908396945,-1.618320610687023,-29.603053435114504,pressup
1604239927.3375883,-0.9783935546875,0.089111328125,-0.0101318359375,-0.15267175572519084,-5.923664122137405,-31.587786259541986,pressup
1604239927.3775883,-1.0120849609375,0.0517578125,-0.0269775390625,-0.007633587786259542,-6.702290076335878,-27.52671755725191,pressup
1604239927.4175882,-1.0184326171875,0.051513671875,0.013916015625,-0.10687022900763359,-6.473282442748092,-25.778625954198475,pressup
1604239927.4575882,-1.0594482421875,0.023193359375,-0.0028076171875,-1.213740458015267,-7.351145038167939,-22.091603053435115,pressup
1604239927.4975882,-0.9779052734375,0.00439453125,0.040283203125,1.213740458015267,-5.442748091603053,-21.00763358778626,pressup
1604239927.5375881,-1.0831298828125,-0.0023193359375,0.029052734375,3.404580152671756,-8.129770992366412,-16.0381679389313,pressup
1604239927.577588,-1.0201416015625,0.0048828125,0.01123046875,1.1908396946564885,-4.0,-17.290076335877863,pressup
1604239927.617588,-1.0740966796875,-0.0023193359375,-0.0015869140625,1.1984732824427482,-7.137404580152672,-12.01526717557252,pressup
1604239927.657588,-1.0552978515625,-0.0145263671875,0.000244140625,1.702290076335878,-4.511450381679389,-7.549618320610687,pressup
1604239927.697588,-1.0906982421875,-0.0289306640625,0.00048828125,0.9770992366412213,-8.80916030534351,-6.091603053435114,pressup
1604239927.737588,-1.0040283203125,-0.0355224609375,0.0107421875,3.2061068702290076,0.19083969465648856,-2.045801526717557,pressup
1604239927.777588,-1.0650634765625,-0.0059814453125,0.018310546875,2.5267175572519083,-2.877862595419847,0.5877862595419847,pressup
1604239927.8175879,-1.0928955078125,-0.0311279296875,0.034423828125,2.0,5.526717557251908,1.9923664122137406,pressup
1604239927.8575878,-1.0943603515625,-0.0350341796875,-0.0081787109375,-0.7175572519083969,-0.26717557251908397,9.992366412213741,pressup
1604239927.8975878,-1.1051025390625,-0.0499267578125,0.018310546875,0.04580152671755725,4.183206106870229,14.50381679389313,pressup
1604239927.9375877,-1.1241455078125,-0.0745849609375,0.002197265625,1.2748091603053435,-1.534351145038168,17.977099236641223,pressup
1604239927.9775877,-1.0638427734375,-0.0067138671875,0.02734375,2.213740458015267,-1.6870229007633588,22.580152671755727,pressup
1604239928.0175877,-1.0372314453125,-0.0125732421875,0.007568359375,2.9083969465648853,-2.5343511450381677,26.862595419847327,pressup
1604239928.0575876,-1.0462646484375,0.0166015625,0.0263671875,3.5267175572519083,-7.1679389312977095,28.099236641221374,pressup
1604239928.0975876,-0.9952392578125,0.04150390625,0.007080078125,2.480916030534351,-6.519083969465649,29.53435114503817,pressup
1604239928.1375875,-0.9276123046875,0.084228515625,0.013427734375,3.145038167938931,-4.229007633587786,29.27480916030534,pressup
1604239928.1775875,-0.9407958984375,0.101318359375,-0.0032958984375,3.572519083969466,-0.25190839694656486,30.091603053435115,pressup
1604239928.2175875,-0.9449462890625,0.151611328125,-0.0052490234375,1.5954198473282444,0.3053435114503817,29.450381679389313,pressup
1604239928.2575874,-0.8123779296875,0.159912109375,0.009765625,4.1603053435114505,8.51908396946565,25.763358778625953,pressup
1604239928.2975874,-0.9134521484375,0.226806640625,-0.0079345703125,1.6106870229007633,13.076335877862595,26.61832061068702,pressup
1604239928.3375874,-0.8231201171875,0.2001953125,0.02734375,2.267175572519084,5.900763358778626,20.076335877862597,pressup
1604239928.3775873,-0.7532958984375,0.223388671875,0.000732421875,-0.4580152671755725,12.358778625954198,11.412213740458014,pressup
1604239928.4175873,-0.6834716796875,0.163818359375,-0.0423583984375,-2.1755725190839694,13.198473282442748,3.900763358778626,pressup
1604239928.4575872,-0.6986083984375,0.211181640625,-0.0521240234375,-3.633587786259542,10.068702290076336,-9.908396946564885,pressup
1604239928.4975872,-0.6951904296875,0.2470703125,-0.0203857421875,0.11450381679389313,0.8931297709923665,-14.900763358778626,pressup
1604239928.5375872,-0.6729736328125,0.17578125,-0.0572509765625,1.5114503816793894,-12.580152671755725,-18.03053435114504,pressup
1604239928.5775871,-0.7969970703125,0.24072265625,-0.0533447265625,2.900763358778626,-8.725190839694656,-18.66412213740458,pressup
1604239928.617587,-0.8482666015625,0.163818359375,-0.0238037109375,-1.9312977099236641,-9.816793893129772,-17.595419847328245,pressup
1604239928.657587,-0.9830322265625,0.088623046875,0.0078125,-2.183206106870229,-5.9541984732824424,-25.480916030534353,pressup
1604239928.697587,-0.9232177734375,0.08642578125,-0.0596923828125,-2.099236641221374,-1.748091603053435,-34.396946564885496,pressup
1604239928.737587,-1.0120849609375,0.020751953125,0.006591796875,-1.0076335877862594,3.618320610687023,-33.02290076335878,pressup
1604239928.777587,-0.8953857421875,0.06689453125,-0.0452880859375,-3.7022900763358777,-2.6793893129770994,-32.465648854961835,pressup
1604239928.817587,-0.9376220703125,0.038818359375,0.018310546875,-1.4427480916030535,3.6946564885496183,-29.38167938931298,pressup
1604239928.8575869,-1.0289306640625,0.03515625,-0.0159912109375,-2.030534351145038,6.206106870229007,-27.519083969465647,pressup
1604239928.8975868,-0.9937744140625,0.001220703125,-0.0164794921875,-3.3053435114503817,-3.854961832061069,-26.916030534351144,pressup
1604239928.9375868,-0.9901123046875,0.002685546875,-0.0106201171875,0.40458015267175573,4.175572519083969,-20.0,pressup
1604239928.9775867,-1.1346435546875,-0.0467529296875,0.00732421875,1.4732824427480915,-5.549618320610687,-13.885496183206106,pressup
1604239929.0175867,-1.1512451171875,-0.0020751953125,0.029296875,3.900763358778626,-8.51908396946565,-8.687022900763358,pressup
1604239929.0575867,-1.1405029296875,-0.0623779296875,0.001708984375,1.5954198473282444,-11.022900763358779,-2.572519083969466,pressup
1604239929.0975866,-1.1883544921875,-0.0616455078125,0.007080078125,2.1908396946564888,-10.603053435114504,3.763358778625954,pressup
1604239929.1375866,-1.1121826171875,-0.0667724609375,0.020263671875,1.4122137404580153,-10.916030534351146,10.17557251908397,pressup
1604239929.1775866,-1.0989990234375,-0.0469970703125,0.009033203125,3.4656488549618323,-6.7251908396946565,11.946564885496183,pressup
1604239929.2175865,-1.0777587890625,-0.0311279296875,0.045166015625,1.9694656488549618,7.519083969465649,14.335877862595419,pressup
1604239929.2575865,-1.1551513671875,-0.0223388671875,0.0673828125,3.786259541984733,1.816793893129771,19.091603053435115,pressup
1604239929.2975864,-1.0565185546875,0.01611328125,0.01806640625,1.7251908396946565,-0.5648854961832062,26.091603053435115,pressup
1604239929.3375864,-1.0557861328125,0.01708984375,0.049560546875,3.015267175572519,0.8549618320610687,29.068702290076335,pressup
1604239929.3775864,-1.0140380859375,0.02783203125,0.007080078125,2.5877862595419847,0.7633587786259542,29.47328244274809,pressup
1604239929.4175863,-0.9957275390625,0.04248046875,0.030029296875,2.3740458015267176,2.2442748091603053,30.84732824427481,pressup
1604239929.4575863,-0.9068603515625,0.090576171875,0.005615234375,3.1755725190839694,3.0839694656488548,31.923664122137403,pressup
1604239929.4975863,-0.9295654296875,0.092529296875,0.0048828125,4.129770992366412,4.419847328244275,32.396946564885496,pressup
1604239929.5375862,-0.9276123046875,0.188232421875,-0.0150146484375,4.595419847328245,4.320610687022901,30.38167938931298,pressup
1604239929.5775862,-0.8675537109375,0.164794921875,-0.0277099609375,1.618320610687023,-2.954198473282443,29.641221374045802,pressup
1604239929.6175861,-0.7215576171875,0.19482421875,-0.0350341796875,3.366412213740458,1.1145038167938932,22.52671755725191,pressup
1604239929.657586,-0.6856689453125,0.18701171875,-0.0611572265625,0.030534351145038167,0.3893129770992366,14.022900763358779,pressup
1604239929.697586,-0.6676025390625,0.210205078125,-0.0350341796875,0.8625954198473282,12.076335877862595,4.030534351145038,pressup
1604239929.737586,-0.7608642578125,0.2109375,-0.0076904296875,0.2366412213740458,5.67175572519084,-6.694656488549619,pressup
1604239929.777586,-0.6893310546875,0.24951171875,-0.0457763671875,0.916030534351145,-1.5954198473282444,-15.534351145038167,pressup
1604239929.817586,-0.7459716796875,0.250244140625,-0.0384521484375,-0.1984732824427481,-0.31297709923664124,-13.48091603053435,pressup
1604239929.857586,-0.8314208984375,0.208740234375,-0.0177001953125,-0.20610687022900764,-4.33587786259542,-11.961832061068701,pressup
1604239929.8975859,-0.9920654296875,0.1572265625,0.001953125,-0.3816793893129771,-8.15267175572519,-19.282442748091604,pressup
1604239929.9375858,-0.8826904296875,0.152099609375,-0.0391845703125,-0.8854961832061069,-3.6412213740458017,-26.65648854961832,pressup
1604239929.9775858,-0.8861083984375,0.09619140625,-0.0164794921875,-0.9541984732824428,-0.26717557251908397,-26.702290076335878,pressup
1604239930.0175858,-0.9571533203125,0.07666015625,-0.0108642578125,-1.5801526717557253,-4.282442748091603,-24.954198473282442,pressup
1604239930.0575857,-0.9476318359375,0.08544921875,-0.0059814453125,0.6946564885496184,-1.5954198473282444,-28.00763358778626,pressup
1604239930.0975857,-0.9573974609375,0.052978515625,-0.0023193359375,0.25190839694656486,-5.0534351145038165,-28.908396946564885,pressup
1604239930.1375856,-0.9698486328125,0.056640625,-0.0150146484375,-1.549618320610687,-6.305343511450381,-26.671755725190838,pressup
1604239930.1775856,-0.9259033203125,0.036376953125,-0.0191650390625,-1.2290076335877862,-2.49618320610687,-26.412213740458014,pressup
1604239930.2175856,-0.9576416015625,0.024658203125,-0.0113525390625,-1.1374045801526718,-2.4656488549618323,-25.267175572519083,pressup
1604239930.2575855,-1.0999755859375,0.044189453125,0.03076171875,1.282442748091603,3.7404580152671754,-21.862595419847327,pressup
1604239930.2975855,-1.1654052734375,-0.0345458984375,0.032958984375,-0.6259541984732825,-6.3816793893129775,-16.389312977099237,pressup
1604239930.3375854,-1.1143798828125,-0.0360107421875,0.029541015625,-0.007633587786259542,-11.114503816793894,-9.091603053435115,pressup
1604239930.3775854,-1.0950927734375,-0.0594482421875,0.01171875,-1.8473282442748091,-2.2519083969465647,-4.877862595419847,pressup
1604239930.4175854,-1.1239013671875,-0.0445556640625,0.037109375,2.1755725190839694,-2.236641221374046,-1.9312977099236641,pressup
1604239930.4575853,-1.1483154296875,-0.0469970703125,0.04931640625,1.1221374045801527,1.534351145038168,7.244274809160306,pressup
1604239930.4975853,-1.1253662109375,-0.0491943359375,0.033447265625,1.4580152671755726,2.1908396946564888,9.419847328244275,pressup
1604239930.5375853,-1.1676025390625,-0.0885009765625,0.051025390625,0.11450381679389313,4.244274809160306,16.31297709923664,pressup
1604239930.5775852,-1.0992431640625,-0.0338134765625,0.0205078125,1.6564885496183206,-2.877862595419847,20.954198473282442,pressup
1604239930.6175852,-1.0474853515625,-0.0225830078125,0.024658203125,1.4961832061068703,-0.9694656488549618,26.236641221374047,pressup
1604239930.6575851,-0.9918212890625,0.01171875,0.0244140625,3.816793893129771,0.9465648854961832,26.412213740458014,pressup
1604239930.697585,-1.0157470703125,0.03955078125,0.01953125,4.068702290076335,1.6870229007633588,30.358778625954198,pressup
1604239930.737585,-0.9659423828125,0.056396484375,0.020263671875,4.129770992366412,3.099236641221374,31.549618320610687,pressup
1604239930.777585,-0.9710693359375,0.0732421875,-0.0059814453125,3.9618320610687023,-1.0458015267175573,31.84732824427481,pressup
1604239930.817585,-0.8887939453125,0.12841796875,-0.0069580078125,4.8396946564885495,5.862595419847328,31.633587786259543,pressup
1604239930.857585,-0.9451904296875,0.1708984375,-0.0433349609375,2.2442748091603053,1.2671755725190839,31.916030534351144,pressup
1604239930.897585,-0.7784423828125,0.146484375,-0.0230712890625,4.549618320610687,5.587786259541985,25.290076335877863,pressup
1604239930.9375849,-0.8035888671875,0.2060546875,-0.0130615234375,3.0381679389312977,1.786259541984733,20.53435114503817,pressup
1604239930.9775848,-0.6768798828125,0.157470703125,-0.0404052734375,1.5648854961832062,6.3893129770992365,8.244274809160306,pressup
1604239931.0175848,-0.7327880859375,0.232177734375,-0.0555419921875,0.732824427480916,2.3053435114503817,0.9007633587786259,pressup
1604239931.0575848,-0.7457275390625,0.201171875,-0.0694580078125,0.6946564885496184,-8.969465648854962,-5.480916030534351,pressup
1604239931.0975847,-0.6534423828125,0.26953125,-0.0638427734375,1.7786259541984732,-3.5114503816793894,-12.641221374045802,pressup
1604239931.1375847,-0.7554931640625,0.197509765625,-0.0369873046875,0.7862595419847328,-4.549618320610687,-15.34351145038168,pressup
1604239931.1775846,-0.8831787109375,0.202392578125,-0.0328369140625,-1.0534351145038168,-8.748091603053435,-18.72519083969466,pressup
1604239931.2175846,-0.8702392578125,0.20263671875,-0.0399169921875,-2.8931297709923665,-3.0916030534351147,-22.53435114503817,pressup
1604239931.2575846,-0.8609619140625,0.1328125,-0.0057373046875,-1.3358778625954197,1.450381679389313,-26.48854961832061,pressup
1604239931.2975845,-0.9613037109375,0.104248046875,-0.0157470703125,-3.2748091603053435,-7.419847328244275,-26.33587786259542,pressup
1604239931.3375845,-0.9068603515625,0.090087890625,0.004150390625,-1.099236641221374,2.267175572519084,-26.137404580152673,pressup
1604239931.3775845,-0.9991455078125,0.052978515625,0.02734375,-1.3893129770992367,-9.076335877862595,-27.50381679389313,pressup
1604239931.4175844,-0.9583740234375,0.041748046875,0.013671875,1.984732824427481,-2.7938931297709924,-27.717557251908396,pressup
1604239931.4575844,-1.0045166015625,0.041259765625,0.0341796875,0.7786259541984732,-5.00763358778626,-27.282442748091604,pressup
1604239931.4975843,-1.0770263671875,0.0244140625,0.030517578125,0.7709923664122137,-3.480916030534351,-25.38167938931298,pressup
1604239931.5375843,-0.9857177734375,0.032470703125,0.00341796875,1.1068702290076335,-5.6183206106870225,-20.740458015267176,pressup
1604239931.5775843,-1.1468505859375,0.0087890625,0.039306640625,0.366412213740458,-5.343511450381679,-16.251908396946565,pressup
1604239931.6175842,-1.0384521484375,-0.0784912109375,0.02978515625,-0.11450381679389313,-13.267175572519085,-12.534351145038167,pressup
1604239931.6575842,-1.0303955078125,-0.0418701171875,0.000732421875,0.5572519083969466,-6.885496183206107,-7.419847328244275,pressup
1604239931.6975842,-1.0184326171875,-0.0184326171875,0.017822265625,3.198473282442748,2.633587786259542,-6.984732824427481,pressup
1604239931.737584,-1.1856689453125,-0.0550537109375,0.059326171875,3.8091603053435112,1.748091603053435,-0.6412213740458015,pressup
1604239931.777584,-1.1710205078125,-0.0125732421875,0.041015625,2.0076335877862594,3.7480916030534353,1.6488549618320612,pressup
1604239931.817584,-1.1146240234375,-0.0911865234375,-0.0001220703125,-2.282442748091603,2.3282442748091605,10.694656488549619,pressup
1604239931.857584,-1.1187744140625,-0.0357666015625,0.006591796875,-1.6946564885496183,10.564885496183207,13.389312977099237,pressup
1604239931.897584,-1.1031494140625,-0.0511474609375,-0.0069580078125,-0.7251908396946565,2.946564885496183,17.938931297709924,pressup
1604239931.937584,-1.0540771484375,-0.0438232421875,0.0087890625,1.7251908396946565,4.473282442748092,17.641221374045802,pressup
1604239931.977584,-1.0443115234375,0.000732421875,0.01953125,2.7938931297709924,4.572519083969466,23.46564885496183,pressup
1604239932.0175838,-1.0318603515625,0.0263671875,0.004150390625,2.6259541984732824,1.1450381679389312,27.519083969465647,pressup
1604239932.0575838,-1.0003662109375,0.08544921875,-0.0218505859375,0.9847328244274809,0.21374045801526717,29.923664122137403,pressup
1604239932.0975838,-0.9644775390625,0.069091796875,0.000244140625,2.984732824427481,1.6641221374045803,30.427480916030536,pressup
1604239932.1375837,-0.9595947265625,0.12158203125,-0.0377197265625,3.8396946564885495,-1.2213740458015268,33.908396946564885,pressup
1604239932.1775837,-0.9095458984375,0.112548828125,-0.0557861328125,0.061068702290076333,2.6030534351145036,32.099236641221374,pressup
1604239932.2175837,-0.8846435546875,0.144287109375,-0.0264892578125,1.7633587786259541,1.7557251908396947,27.396946564885496,pressup
1604239932.2575836,-0.8079833984375,0.173828125,-0.0396728515625,-0.48091603053435117,0.6106870229007634,25.076335877862597,pressup
1604239932.2975836,-0.6778564453125,0.189697265625,-0.0318603515625,-0.549618320610687,11.435114503816793,14.633587786259541,pressup
1604239932.3375835,-0.7137451171875,0.14990234375,-0.0177001953125,-1.5877862595419847,10.740458015267176,4.648854961832061,pressup
1604239932.3775835,-0.6968994140625,0.182861328125,-0.0499267578125,-0.4351145038167939,5.1679389312977095,-7.229007633587786,pressup
1604239932.4175835,-0.6561279296875,0.208984375,-0.0565185546875,0.7862595419847328,-2.8091603053435112,-14.610687022900763,pressup
1604239932.4575834,-0.6932373046875,0.242919921875,-0.0709228515625,0.31297709923664124,-9.427480916030534,-17.519083969465647,pressup
1604239932.4975834,-0.7843017578125,0.196044921875,-0.0196533203125,0.5877862595419847,1.6717557251908397,-19.099236641221374,pressup
1604239932.5375834,-0.9417724609375,0.178466796875,0.0048828125,0.2595419847328244,-16.221374045801525,-22.603053435114504,pressup
1604239932.5775833,-0.8770751953125,0.15576171875,-0.0179443359375,-1.0763358778625953,-9.312977099236642,-25.374045801526716,pressup
1604239932.6175833,-0.9681396484375,0.0869140625,-0.0123291015625,-0.2595419847328244,-10.068702290076336,-27.717557251908396,pressup
1604239932.6575832,-0.9505615234375,0.057861328125,0.021728515625,0.45038167938931295,-6.862595419847328,-29.137404580152673,pressup
1604239932.6975832,-0.9219970703125,0.06787109375,0.02392578125,0.21374045801526717,-10.114503816793894,-28.412213740458014,pressup
1604239932.7375832,-0.9222412109375,0.02294921875,0.006591796875,-1.8625954198473282,-2.8931297709923665,-28.18320610687023,pressup
1604239932.7775831,-1.0211181640625,0.0439453125,0.02880859375,0.6717557251908397,2.3282442748091605,-24.83206106870229,pressup
1604239932.817583,-1.1192626953125,0.028564453125,0.03173828125,-0.6030534351145038,-5.656488549618321,-20.954198473282442,pressup
1604239932.857583,-1.0679931640625,-0.0179443359375,0.00244140625,-0.7175572519083969,-6.1603053435114505,-15.282442748091603,pressup
1604239932.897583,-1.0753173828125,-0.0079345703125,0.019775390625,-1.7404580152671756,-1.5038167938931297,-14.755725190839694,pressup
1604239932.937583,-1.0191650390625,-0.0496826171875,0.01318359375,1.1603053435114503,1.6488549618320612,-11.511450381679388,pressup
1604239932.977583,-1.1158447265625,-0.0433349609375,0.04931640625,3.3053435114503817,2.2213740458015265,-6.145038167938932,pressup
1604239933.017583,-1.1527099609375,-0.0343017578125,0.0283203125,1.717557251908397,-2.564885496183206,0.5114503816793893,pressup
1604239933.0575829,-1.1710205078125,-0.0411376953125,0.063720703125,0.916030534351145,2.183206106870229,6.709923664122138,pressup
1604239933.0975828,-1.1185302734375,-0.0428466796875,0.016357421875,0.16793893129770993,-1.9618320610687023,11.458015267175572,pressup
1604239933.1375828,-1.1019287109375,-0.0489501953125,0.034423828125,0.007633587786259542,1.6030534351145038,14.931297709923664,pressup
1604239933.1775827,-1.0367431640625,-0.0189208984375,0.00146484375,3.3587786259541983,0.007633587786259542,20.33587786259542,pressup
1604239933.2175827,-1.0504150390625,-0.0394287109375,0.029541015625,3.2519083969465647,2.351145038167939,23.17557251908397,pressup
1604239933.2575827,-1.0323486328125,0.01171875,0.05615234375,3.145038167938931,4.702290076335878,24.84732824427481,pressup
1604239933.2975826,-1.0660400390625,0.036376953125,0.016845703125,0.3053435114503817,0.6717557251908397,27.931297709923665,pressup
1604239933.3375826,-0.9486083984375,0.037353515625,-0.0064697265625,0.9465648854961832,5.465648854961832,28.137404580152673,pressup
1604239933.3775826,-0.9842529296875,0.068115234375,-0.0284423828125,0.9770992366412213,0.37404580152671757,29.061068702290076,pressup
1604239933.4175825,-0.9000244140625,0.11279296875,-0.0408935546875,3.885496183206107,0.9465648854961832,29.076335877862597,pressup
1604239933.4575825,-0.9105224609375,0.124755859375,-0.0565185546875,4.0534351145038165,-0.8396946564885496,30.870229007633586,pressup
1604239933.4975824,-0.8980712890625,0.180419921875,-0.0364990234375,5.091603053435114,-0.8931297709923665,24.770992366412212,pressup
1604239933.5375824,-0.8336181640625,0.18896484375,-0.0177001953125,2.4580152671755724,0.7099236641221374,21.106870229007633,pressup
1604239933.5775824,-0.7523193359375,0.150634765625,-0.0240478515625,0.3435114503816794,0.22137404580152673,14.267175572519085,pressup
1604239933.6175823,-0.7542724609375,0.186767578125,0.014892578125,1.4122137404580153,0.8549618320610687,7.3893129770992365,pressup
1604239933.6575823,-0.7640380859375,0.19189453125,-0.0369873046875,1.4045801526717556,-10.114503816793894,1.8702290076335877,pressup
1604239933.6975822,-0.6566162109375,0.20703125,-0.0374755859375,0.7404580152671756,-10.145038167938932,-13.251908396946565,pressup
1604239933.7375822,-0.6468505859375,0.282470703125,-0.0504150390625,-0.13740458015267176,-4.267175572519084,-16.34351145038168,pressup
1604239933.7775822,-0.7633056640625,0.202392578125,0.031005859375,-0.21374045801526717,-3.2748091603053435,-15.572519083969466,pressup
1604239933.8175821,-0.8790283203125,0.188232421875,0.0205078125,-2.5572519083969465,-7.770992366412214,-22.206106870229007,pressup
1604239933.857582,-0.9022216796875,0.144287109375,-0.0072021484375,-3.122137404580153,-9.473282442748092,-26.3206106870229,pressup
1604239933.897582,-0.8477783203125,0.12109375,0.00830078125,-1.8854961832061068,2.0610687022900764,-30.17557251908397,pressup
1604239933.937582,-0.9288330078125,0.04638671875,0.036376953125,-1.4961832061068703,-6.1679389312977095,-29.259541984732824,pressup
1604239933.977582,-0.9197998046875,0.0419921875,0.04638671875,3.6259541984732824,-2.068702290076336,-31.404580152671755,pressup
1604239934.017582,-1.0426025390625,0.064453125,0.0986328125,3.3282442748091605,-5.0534351145038165,-25.72519083969466,pressup
1604239934.057582,-1.0025634765625,0.035888671875,0.02294921875,0.7709923664122137,-4.893129770992366,-26.129770992366414,pressup
1604239934.0975819,-0.9742431640625,0.01416015625,-0.0106201171875,-3.0763358778625953,0.7480916030534351,-29.213740458015266,pressup
1604239934.1375818,-0.9886474609375,0.015869140625,0.00390625,-2.099236641221374,9.748091603053435,-20.221374045801525,pressup
1604239934.1775818,-1.1387939453125,-0.0511474609375,0.013427734375,-1.3282442748091603,-0.20610687022900764,-14.908396946564885,pressup
1604239934.2175817,-1.0950927734375,-0.0950927734375,0.0263671875,-0.42748091603053434,-1.2748091603053435,-12.65648854961832,pressup
1604239934.2575817,-1.0906982421875,-0.0313720703125,0.006103515625,-0.48854961832061067,0.07633587786259542,-10.618320610687023,pressup
1604239934.2975817,-1.1202392578125,-0.0281982421875,0.00927734375,1.1603053435114503,3.900763358778626,-3.183206106870229,pressup
1604239934.3375816,-1.1419677734375,-0.0540771484375,-0.0081787109375,-0.5877862595419847,0.9389312977099237,4.351145038167939,pressup
1604239934.3775816,-1.1578369140625,-0.0543212890625,0.00048828125,-0.33587786259541985,4.320610687022901,9.549618320610687,pressup
1604239934.4175816,-1.2379150390625,-0.0924072265625,-0.0113525390625,0.732824427480916,0.3053435114503817,14.664122137404581,pressup
1604239934.4575815,-1.1351318359375,-0.0489501953125,0.01025390625,2.564885496183206,-1.5725190839694656,19.053435114503817,pressup
1604239934.4975815,-1.1046142578125,-0.0230712890625,0.01708984375,4.450381679389313,-2.1068702290076335,25.633587786259543,pressup
1604239934.5375814,-1.0506591796875,0.006591796875,0.000732421875,2.5801526717557253,-6.33587786259542,27.404580152671755,pressup
1604239934.5775814,-0.9754638671875,0.037109375,0.021728515625,2.8702290076335877,2.885496183206107,27.625954198473284,pressup
1604239934.6175814,-0.9774169921875,0.064208984375,-0.0262451171875,-1.9389312977099236,2.3893129770992365,33.61068702290076,pressup
1604239934.6575813,-0.9344482421875,0.049072265625,0.016845703125,3.6412213740458017,3.282442748091603,30.206106870229007,pressup
1604239934.6975813,-0.9290771484375,0.07421875,0.011474609375,4.557251908396947,6.801526717557252,31.00763358778626,pressup
1604239934.7375813,-0.9515380859375,0.155517578125,-0.0255126953125,1.5801526717557253,-3.053435114503817,31.46564885496183,pressup
1604239934.7775812,-0.8123779296875,0.11962890625,-0.0260009765625,3.1297709923664123,3.885496183206107,26.595419847328245,pressup
1604239934.8175812,-0.8345947265625,0.196533203125,-0.0355224609375,2.4198473282442747,-0.05343511450381679,23.671755725190838,pressup
1604239934.8575811,-0.7220458984375,0.164794921875,-0.0091552734375,3.015267175572519,-3.8091603053435112,17.419847328244273,pressup
1604239934.897581,-0.6888427734375,0.190185546875,-0.0357666015625,2.198473282442748,-6.312977099236641,6.374045801526718,pressup
1604239934.937581,-0.6400146484375,0.190185546875,-0.0235595703125,-0.15267175572519084,1.83206106870229,-4.038167938931298,pressup
1604239934.977581,-0.6771240234375,0.21875,-0.0489501953125,0.7480916030534351,-5.854961832061068,-13.793893129770993,pressup
1604239935.017581,-0.6632080078125,0.235107421875,-0.0504150390625,1.0381679389312977,-4.0534351145038165,-20.091603053435115,pressup
1604239935.057581,-0.7891845703125,0.239013671875,-0.0184326171875,0.8702290076335878,-4.732824427480916,-23.66412213740458,pressup
1604239935.097581,-0.8660888671875,0.178955078125,-0.0108642578125,-1.4274809160305344,-8.206106870229007,-24.366412213740457,pressup
1604239935.1375809,-0.9207763671875,0.133544921875,0.019775390625,-1.3129770992366412,-7.145038167938932,-28.6793893129771,pressup
1604239935.1775808,-0.8944091796875,0.08642578125,0.019775390625,-1.6488549618320612,-1.6717557251908397,-31.236641221374047,pressup
1604239935.2175808,-1.0308837890625,0.09228515625,0.03857421875,-1.0229007633587786,-7.931297709923665,-29.47328244274809,pressup
1604239935.2575808,-1.0081787109375,0.027099609375,0.0087890625,-1.9618320610687023,-1.4885496183206106,-29.236641221374047,pressup
1604239935.2975807,-1.0933837890625,-0.0252685546875,0.048828125,-0.7404580152671756,-10.938931297709924,-25.34351145038168,pressup
1604239935.3375807,-1.0345458984375,-0.0269775390625,0.05322265625,-1.5954198473282444,-1.7099236641221374,-24.442748091603054,pressup
1604239935.3775806,-1.0098876953125,-0.0181884765625,0.009033203125,-1.1068702290076335,-5.534351145038168,-23.076335877862597,pressup
1604239935.4175806,-1.0941162109375,-0.0045166015625,0.0712890625,-0.183206106870229,1.6488549618320612,-15.465648854961833,pressup
1604239935.4575806,-1.1282958984375,-0.0340576171875,0.040771484375,-0.7480916030534351,-2.969465648854962,-10.183206106870228,pressup
1604239935.4975805,-1.1492919921875,-0.0750732421875,0.034912109375,-1.7251908396946565,-0.37404580152671757,-8.32824427480916,pressup
1604239935.5375805,-1.0865478515625,-0.0435791015625,0.03662109375,-0.366412213740458,0.5877862595419847,0.4198473282442748,pressup
1604239935.5775805,-1.2012939453125,-0.0430908203125,0.048095703125,1.6946564885496183,3.5801526717557253,6.320610687022901,pressup
1604239935.6175804,-1.1756591796875,-0.0460205078125,0.063232421875,2.6030534351145036,-0.8931297709923665,12.274809160305344,pressup
1604239935.6575804,-1.1568603515625,-0.0628662109375,0.074462890625,1.4885496183206106,-0.015267175572519083,17.595419847328245,pressup
1604239935.6975803,-1.0972900390625,0.008056640625,0.029052734375,-1.9236641221374047,-0.12213740458015267,21.72519083969466,pressup
1604239935.7375803,-1.0401611328125,-0.0565185546875,0.047119140625,1.251908396946565,1.5190839694656488,25.83206106870229,pressup
1604239935.7775803,-1.0284423828125,0.04345703125,0.05126953125,3.7786259541984735,0.16793893129770993,26.51145038167939,pressup
1604239935.8175802,-0.9376220703125,0.005126953125,0.023681640625,1.6641221374045803,-1.4732824427480915,30.595419847328245,pressup
1604239935.8575802,-0.9422607421875,0.07177734375,0.011474609375,1.7938931297709924,10.259541984732824,28.091603053435115,pressup
1604239935.8975801,-0.9578857421875,0.068603515625,0.015625,0.7633587786259542,5.770992366412214,28.900763358778626,pressup
1604239935.93758,-0.9031982421875,0.120361328125,0.025634765625,2.9770992366412212,6.068702290076335,28.442748091603054,pressup
1604239935.97758,-0.8489990234375,0.13818359375,-0.0316162109375,1.5038167938931297,0.2366412213740458,29.16793893129771,pressup
1604239936.01758,-0.8050537109375,0.14599609375,-0.0155029296875,4.931297709923665,11.045801526717558,22.885496183206108,pressup
1604239936.05758,-0.8756103515625,0.16552734375,0.022216796875,5.740458015267175,-3.0076335877862594,19.557251908396946,pressup
1604239936.09758,-0.7025146484375,0.19677734375,0.0,3.618320610687023,-5.893129770992366,8.98473282442748,pressup
1604239936.13758,-0.6409912109375,0.20263671875,-0.0179443359375,0.2595419847328244,-2.3206106870229006,0.5801526717557252,pressup
1604239936.1775799,-0.6280517578125,0.1943359375,-0.0430908203125,-1.5954198473282444,-4.442748091603053,-10.251908396946565,pressup
1604239936.2175798,-0.6253662109375,0.247314453125,-0.0504150390625,-0.7022900763358778,2.4198473282442747,-17.778625954198475,pressup
1604239936.2575798,-0.8197021484375,0.168212890625,0.01416015625,-0.030534351145038167,0.6717557251908397,-22.0381679389313,pressup
1604239936.2975798,-0.9019775390625,0.1982421875,-0.0360107421875,-1.6030534351145038,-7.541984732824427,-26.984732824427482,pressup
1604239936.3375797,-0.8812255859375,0.125,0.03759765625,-0.6030534351145038,-0.9541984732824428,-27.16793893129771,pressup
1604239936.3775797,-1.0120849609375,0.083984375,0.00927734375,-2.8625954198473282,-11.106870229007633,-28.17557251908397,pressup
1604239936.4175797,-0.8856201171875,0.08984375,0.014404296875,-0.5190839694656488,-6.083969465648855,-32.47328244274809,pressup
1604239936.4575796,-1.0120849609375,0.041259765625,0.027587890625,1.7709923664122138,-5.961832061068702,-26.595419847328245,pressup
1604239936.4975796,-1.0477294921875,0.026611328125,0.0537109375,1.9618320610687023,-6.770992366412214,-26.68702290076336,pressup
1604239936.5375795,-1.0089111328125,-0.0145263671875,0.00537109375,-0.6335877862595419,-6.763358778625954,-23.755725190839694,pressup
1604239936.5775795,-0.9964599609375,-0.0216064453125,0.0166015625,-2.1755725190839694,-1.9923664122137406,-20.954198473282442,pressup
1604239936.6175795,-1.1080322265625,-0.0152587890625,0.05615234375,-1.0229007633587786,3.7557251908396947,-17.6793893129771,pressup
1604239936.6575794,-1.0758056640625,-0.0389404296875,0.003173828125,-1.3282442748091603,-3.50381679389313,-15.969465648854962,pressup
1604239936.6975794,-1.0799560546875,-0.0284423828125,0.066162109375,1.6564885496183206,11.572519083969466,-10.259541984732824,pressup
1604239936.7375793,-1.1593017578125,-0.1102294921875,0.06005859375,0.17557251908396945,-3.5572519083969465,-5.1679389312977095,pressup
1604239936.7775793,-1.1063232421875,0.013427734375,0.052734375,0.5572519083969466,8.687022900763358,-0.7862595419847328,pressup
1604239936.8175793,-1.1514892578125,-0.0445556640625,0.032958984375,-0.5114503816793893,0.5801526717557252,7.923664122137405,pressup
1604239936.8575792,-1.1749267578125,-0.0472412109375,0.056396484375,1.8854961832061068,-2.946564885496183,13.022900763358779,pressup
1604239936.8975792,-1.0794677734375,-0.0413818359375,0.02294921875,2.549618320610687,-5.8396946564885495,17.236641221374047,pressup
1604239936.9375792,-1.0750732421875,0.014404296875,0.04541015625,3.6564885496183206,-2.2977099236641223,20.519083969465647,pressup
1604239936.977579,-1.0111083984375,-0.0374755859375,-0.0093994140625,1.1450381679389312,-5.595419847328245,23.908396946564885,pressup
1604239937.017579,-0.9488525390625,0.021484375,0.0146484375,0.9923664122137404,3.351145038167939,25.61832061068702,pressup
1604239937.057579,-1.0008544921875,-0.0191650390625,0.025634765625,2.3282442748091605,2.6412213740458017,24.87786259541985,pressup
1604239937.097579,-0.9935302734375,0.067138671875,0.033447265625,4.931297709923665,5.122137404580153,24.389312977099237,pressup
1604239937.137579,-0.9661865234375,0.035888671875,0.041259765625,3.9618320610687023,1.3282442748091603,27.396946564885496,pressup
1604239937.177579,-0.9588623046875,0.137451171875,0.01904296875,2.0839694656488548,-0.2595419847328244,27.938931297709924,pressup
1604239937.217579,-0.8953857421875,0.095947265625,0.003662109375,0.2748091603053435,2.7022900763358777,27.519083969465647,pressup
1604239937.2575788,-0.9354248046875,0.1962890625,-0.0281982421875,-1.534351145038168,4.145038167938932,24.801526717557252,pressup
1604239937.2975788,-0.7730712890625,0.137451171875,-0.0291748046875,-1.3740458015267176,7.480916030534351,22.14503816793893,pressup
1604239937.3375788,-0.8026123046875,0.17919921875,-0.0074462890625,2.16793893129771,11.50381679389313,16.17557251908397,pressup
1604239937.3775787,-0.7650146484375,0.18359375,-0.0042724609375,3.3740458015267176,5.778625954198473,10.954198473282442,pressup
1604239937.4175787,-0.7274169921875,0.188720703125,-0.0040283203125,1.213740458015267,4.7251908396946565,0.29770992366412213,pressup
1604239937.4575787,-0.6915283203125,0.21728515625,-0.0196533203125,-1.4809160305343512,6.549618320610687,-11.022900763358779,pressup
1604239937.4975786,-0.6627197265625,0.232421875,-0.0511474609375,-1.618320610687023,1.5038167938931297,-16.671755725190838,pressup
1604239937.5375786,-0.7308349609375,0.21533203125,-0.0220947265625,-0.5038167938931297,1.0458015267175573,-17.793893129770993,pressup
1604239937.5775785,-0.8565673828125,0.176025390625,-0.0128173828125,1.5190839694656488,-3.6946564885496183,-21.96946564885496,pressup
1604239937.6175785,-0.9444580078125,0.171630859375,-0.0150146484375,2.366412213740458,-9.709923664122137,-26.81679389312977,pressup
1604239937.6575785,-0.8646240234375,0.105712890625,-0.0023193359375,1.5801526717557253,-11.732824427480915,-27.83969465648855,pressup
1604239937.6975784,-0.8780517578125,0.11669921875,-0.0208740234375,1.1068702290076335,-9.618320610687023,-28.076335877862597,pressup
1604239937.7375784,-0.9129638671875,0.076171875,-0.0064697265625,2.0229007633587788,-4.923664122137405,-28.297709923664122,pressup
1604239937.7775784,-1.0672607421875,0.023681640625,0.003173828125,2.549618320610687,-10.679389312977099,-25.82442748091603,pressup
1604239937.8175783,-1.0465087890625,-0.0157470703125,-0.0299072265625,-1.7099236641221374,-11.98473282442748,-25.015267175572518,pressup
1604239937.8575783,-1.0084228515625,-0.0386962890625,0.01220703125,0.22900763358778625,-5.221374045801527,-24.297709923664122,pressup
1604239937.8975782,-1.0235595703125,-0.0279541015625,0.004638671875,1.0610687022900764,-2.9083969465648853,-19.27480916030534,pressup
1604239937.9375782,-1.1888427734375,-0.0428466796875,0.0224609375,-0.5648854961832062,-5.6183206106870225,-14.458015267175572,pressup
1604239937.9775782,-1.0152587890625,-0.0653076171875,0.033203125,-2.1526717557251906,-7.870229007633588,-13.82442748091603,pressup
1604239938.0175781,-1.0430908203125,-0.0926513671875,0.0302734375,-0.8091603053435115,4.977099236641221,-9.931297709923664,pressup
1604239938.057578,-1.1217041015625,-0.0098876953125,0.047119140625,1.2900763358778626,-2.183206106870229,-3.5114503816793894,pressup
1604239938.097578,-1.1783447265625,-0.0045166015625,0.0517578125,2.83206106870229,-5.244274809160306,5.091603053435114,pressup
1604239938.137578,-1.1202392578125,-0.0218505859375,0.0576171875,0.9083969465648855,-2.8091603053435112,7.320610687022901,pressup
1604239938.177578,-1.0919189453125,-0.0428466796875,0.03857421875,0.9083969465648855,-2.267175572519084,13.404580152671755,pressup
1604239938.217578,-1.0877685546875,-0.0169677734375,0.026611328125,-0.09923664122137404,0.11450381679389313,18.099236641221374,pressup
1604239938.257578,-1.0989990234375,-0.0650634765625,0.034423828125,2.6564885496183206,-2.633587786259542,20.80916030534351,pressup
1604239938.2975779,-1.0115966796875,0.009521484375,0.05615234375,3.6412213740458017,3.7251908396946565,21.793893129770993,pressup
1604239938.3375778,-1.0413818359375,-0.0177001953125,0.06494140625,3.3893129770992365,-2.8931297709923665,25.64885496183206,pressup
1604239938.3775778,-1.0067138671875,0.059814453125,0.076904296875,3.7709923664122136,1.8396946564885497,26.549618320610687,pressup
1604239938.4175777,-0.9879150390625,0.004150390625,0.0244140625,1.3282442748091603,-2.2595419847328246,29.770992366412212,pressup
1604239938.4575777,-0.9276123046875,0.082763671875,0.01318359375,2.2595419847328246,2.8625954198473282,28.763358778625953,pressup
1604239938.4975777,-0.9117431640625,0.06201171875,0.023193359375,2.404580152671756,0.2748091603053435,30.229007633587788,pressup
1604239938.5375776,-0.8814697265625,0.146484375,0.003662109375,3.145038167938931,0.1450381679389313,26.80916030534351,pressup
1604239938.5775776,-0.8485107421875,0.158935546875,-0.0001220703125,3.5801526717557253,2.49618320610687,26.51145038167939,pressup
1604239938.6175776,-0.8057861328125,0.232666015625,-0.0245361328125,2.8473282442748094,2.0,20.763358778625953,pressup
1604239938.6575775,-0.7398681640625,0.1982421875,0.0,1.6564885496183206,6.038167938931298,15.083969465648854,pressup
1604239938.6975775,-0.7230224609375,0.193603515625,-0.0006103515625,0.4732824427480916,5.847328244274809,4.702290076335878,pressup
1604239938.7375774,-0.7027587890625,0.1689453125,0.001708984375,-2.099236641221374,6.404580152671755,-6.206106870229007,pressup
1604239938.7775774,-0.7205810546875,0.2470703125,-0.0345458984375,-1.618320610687023,2.7709923664122136,-16.366412213740457,pressup
1604239938.8175774,-0.6964111328125,0.235107421875,-0.0113525390625,-0.2900763358778626,3.4427480916030535,-19.17557251908397,pressup
1604239938.8575773,-0.8238525390625,0.17578125,-0.0333251953125,-0.24427480916030533,-3.0610687022900764,-19.290076335877863,pressup
1604239938.8975773,-0.9241943359375,0.182861328125,0.0078125,-0.06870229007633588,-8.587786259541986,-23.87786259541985,pressup
1604239938.9375772,-0.8465576171875,0.1474609375,-0.0472412109375,0.6259541984732825,-14.007633587786259,-26.793893129770993,pressup
1604239938.9775772,-0.8570556640625,0.08740234375,-0.0001220703125,1.0229007633587786,-3.954198473282443,-27.85496183206107,pressup
1604239939.0175772,-1.0242919921875,0.078369140625,0.00927734375,0.07633587786259542,-12.32824427480916,-28.893129770992367,pressup
1604239939.0575771,-0.8607177734375,0.006591796875,0.041748046875,1.7251908396946565,-11.022900763358779,-28.557251908396946,pressup
1604239939.097577,-1.0325927734375,0.02734375,0.037109375,0.2595419847328244,-6.969465648854962,-25.83206106870229,pressup
1604239939.137577,-1.0604248046875,-0.0242919921875,0.034912109375,-0.916030534351145,-3.236641221374046,-22.87786259541985,pressup
1604239939.177577,-1.0775146484375,-0.0535888671875,0.077392578125,-0.3816793893129771,-3.045801526717557,-19.27480916030534,pressup
1604239939.217577,-1.1700439453125,-0.0238037109375,0.068359375,0.5190839694656488,-5.8396946564885495,-15.312977099236642,pressup
1604239939.257577,-1.0494384765625,-0.0086669921875,0.02001953125,0.1984732824427481,-7.717557251908397,-12.610687022900763,pressup
1604239939.297577,-1.1087646484375,-0.0316162109375,0.03125,-0.07633587786259542,-5.3893129770992365,-2.9236641221374047,pressup
1604239939.3375769,-1.0911865234375,-0.0245361328125,0.03955078125,-0.6412213740458015,3.1908396946564888,0.5801526717557252,pressup
1604239939.3775768,-1.2230224609375,-0.0462646484375,0.072021484375,-1.7786259541984732,2.4427480916030535,5.343511450381679,pressup
1604239939.4175768,-1.1495361328125,-0.0716552734375,0.07275390625,1.748091603053435,1.1297709923664123,8.045801526717558,pressup
1604239939.4575768,-1.0975341796875,-0.0213623046875,0.04931640625,1.1221374045801527,1.633587786259542,16.885496183206108,pressup
1604239939.4975767,-1.0914306640625,-0.0269775390625,0.09130859375,3.7022900763358777,-1.5038167938931297,19.53435114503817,pressup
1604239939.5375767,-1.0792236328125,0.01220703125,0.0458984375,3.6564885496183206,-3.8931297709923665,22.47328244274809,pressup
1604239939.5775766,-0.9749755859375,0.033203125,0.044921875,3.549618320610687,0.9389312977099237,24.68702290076336,pressup
1604239939.6175766,-0.9493408203125,0.024658203125,0.0234375,2.381679389312977,0.10687022900763359,27.106870229007633,pressup
1604239939.6575766,-0.9420166015625,0.052001953125,0.055419921875,4.4961832061068705,10.206106870229007,25.938931297709924,pressup
1604239939.6975765,-0.9998779296875,0.069091796875,0.011474609375,1.4427480916030535,-1.4580152671755726,26.442748091603054,pressup
1604239939.7375765,-0.8814697265625,0.11865234375,0.02197265625,4.801526717557252,5.557251908396947,23.931297709923665,pressup
1604239939.7775764,-0.8958740234375,0.109130859375,0.03173828125,3.3969465648854964,3.16793893129771,27.419847328244273,pressup
1604239939.8175764,-0.8419189453125,0.174072265625,-0.0069580078125,3.1374045801526718,3.3893129770992365,22.0,pressup
1604239939.8575764,-0.7896728515625,0.18798828125,-0.0189208984375,0.6564885496183206,7.5038167938931295,16.282442748091604,pressup
1604239939.8975763,-0.7662353515625,0.17333984375,-0.0072021484375,0.9007633587786259,6.717557251908397,13.488549618320612,pressup
1604239939.9375763,-0.8245849609375,0.194091796875,0.0009765625,0.3511450381679389,5.221374045801527,4.717557251908397,pressup
1604239939.9775763,-0.7515869140625,0.1357421875,-0.0101318359375,1.0763358778625953,3.931297709923664,-3.4580152671755724,pressup
1604239940.0175762,-0.8460693359375,0.24169921875,0.009521484375,2.2519083969465647,0.16030534351145037,-10.48091603053435,pressup
1604239940.0575762,-0.7645263671875,0.2314453125,-0.0411376953125,2.0839694656488548,-16.587786259541986,-10.038167938931299,pressup
1604239940.0975761,-0.7862548828125,0.207763671875,-0.0113525390625,2.3053435114503817,-1.4198473282442747,-11.702290076335878,pressup
1604239940.137576,-0.8394775390625,0.202880859375,-0.0164794921875,-0.6641221374045801,-12.290076335877863,-18.297709923664122,pressup
1604239940.177576,-0.8360595703125,0.08837890625,-0.0240478515625,-2.3740458015267176,-8.473282442748092,-20.442748091603054,pressup
1604239940.217576,-0.8028564453125,0.169677734375,-0.0169677734375,-1.984732824427481,-1.1374045801526718,-28.045801526717558,pressup
1604239940.257576,-0.8814697265625,0.072509765625,-0.0098876953125,-1.366412213740458,-3.6030534351145036,-28.72519083969466,pressup
1604239940.297576,-0.8990478515625,0.08740234375,0.021484375,-1.0076335877862594,-1.9389312977099236,-30.450381679389313,pressup
1604239940.337576,-1.0191650390625,0.0732421875,0.037841796875,0.6717557251908397,-7.732824427480916,-30.450381679389313,pressup
1604239940.3775759,-0.9945068359375,0.0166015625,0.045166015625,0.8778625954198473,-0.732824427480916,-26.87786259541985,pressup
1604239940.4175758,-1.1260986328125,-0.0125732421875,0.10302734375,0.22137404580152673,-2.213740458015267,-24.427480916030536,pressup
1604239940.4575758,-1.1065673828125,-0.0089111328125,0.04248046875,-0.8244274809160306,-10.183206106870228,-20.801526717557252,pressup
1604239940.4975758,-1.0760498046875,-0.0079345703125,0.03076171875,-2.404580152671756,-1.1450381679389312,-14.740458015267176,pressup
1604239940.5375757,-1.1524658203125,-0.0538330078125,0.042236328125,-0.2366412213740458,-8.854961832061068,-5.320610687022901,pressup
1604239940.5775757,-1.2008056640625,-0.0601806640625,0.05078125,2.648854961832061,-9.374045801526718,-2.8091603053435112,pressup
1604239940.6175756,-1.1219482421875,-0.0333251953125,0.039794921875,4.885496183206107,-10.122137404580153,3.1297709923664123,pressup
1604239940.6575756,-1.1578369140625,-0.0430908203125,0.043212890625,5.717557251908397,-6.6183206106870225,9.488549618320612,pressup
1604239940.6975756,-1.1676025390625,-0.0032958984375,0.074951171875,5.374045801526718,-4.1603053435114505,14.17557251908397,pressup
1604239940.7375755,-1.1397705078125,-0.0059814453125,0.088134765625,3.1603053435114505,-3.648854961832061,15.396946564885496,pressup
1604239940.7775755,-1.0023193359375,-0.0089111328125,0.066162109375,0.732824427480916,-1.9618320610687023,21.27480916030534,pressup
1604239940.8175755,-0.9818115234375,0.010986328125,0.05029296875,1.6870229007633588,5.206106870229007,25.0,pressup
1604239940.8575754,-0.9871826171875,0.02001953125,0.013427734375,0.3282442748091603,-2.450381679389313,26.419847328244273,pressup
1604239940.8975754,-0.9378662109375,-0.0015869140625,0.042724609375,2.83206106870229,12.083969465648854,22.0,pressup
1604239940.9375753,-1.0037841796875,0.052490234375,0.034423828125,1.213740458015267,1.9923664122137406,27.580152671755727,pressup
1604239940.9775753,-0.9708251953125,0.07958984375,0.03466796875,2.5114503816793894,4.0,27.106870229007633,pressup
1604239941.0175753,-0.9798583984375,0.171142578125,0.03076171875,-0.25190839694656486,0.3893129770992366,29.206106870229007,pressup
1604239941.0575752,-0.8494873046875,0.12255859375,0.026611328125,-1.83206106870229,5.66412213740458,27.076335877862597,pressup
1604239941.0975752,-0.9178466796875,0.1953125,0.02490234375,2.145038167938931,9.595419847328245,25.908396946564885,pressup
1604239941.1375751,-0.7818603515625,0.184814453125,0.007568359375,1.1068702290076335,-0.19083969465648856,19.82442748091603,pressup
1604239941.177575,-0.7474365234375,0.197509765625,0.031494140625,1.1374045801526718,6.6106870229007635,12.244274809160306,pressup
1604239941.217575,-0.6522216796875,0.171875,-0.0145263671875,-1.6412213740458015,6.824427480916031,2.9923664122137406,pressup
1604239941.257575,-0.7222900390625,0.19287109375,0.00390625,-0.05343511450381679,10.389312977099237,-6.885496183206107,pressup
1604239941.297575,-0.7774658203125,0.273681640625,-0.0162353515625,-0.2595419847328244,0.8549618320610687,-10.610687022900763,pressup
1604239941.337575,-0.7508544921875,0.283203125,-0.0335693359375,1.1603053435114503,-3.49618320610687,-13.977099236641221,pressup
1604239941.377575,-0.8507080078125,0.196044921875,-0.0152587890625,0.7480916030534351,0.6335877862595419,-12.274809160305344,pressup
1604239941.417575,-0.9481201171875,0.1611328125,-0.0159912109375,-0.0916030534351145,-5.763358778625954,-18.34351145038168,pressup
1604239941.4575748,-0.8612060546875,0.167236328125,-0.0433349609375,-2.045801526717557,-5.702290076335878,-21.49618320610687,pressup
1604239941.4975748,-0.9476318359375,0.10205078125,-0.0013427734375,-1.0076335877862594,-3.3206106870229006,-22.480916030534353,pressup
1604239941.5375748,-0.9080810546875,0.08056640625,-0.0086669921875,0.183206106870229,-8.381679389312977,-25.0381679389313,pressup
1604239941.5775747,-0.8875732421875,0.05224609375,0.0087890625,-2.053435114503817,-7.687022900763359,-26.66412213740458,pressup
1604239941.6175747,-0.9229736328125,0.063232421875,0.017578125,1.6106870229007633,-7.977099236641221,-25.419847328244273,pressup
1604239941.6575747,-0.9774169921875,0.045654296875,0.03759765625,1.0610687022900764,-9.84732824427481,-24.33587786259542,pressup
1604239941.6975746,-1.0115966796875,0.029052734375,0.04443359375,1.251908396946565,-9.687022900763358,-22.702290076335878,pressup
1604239941.7375746,-1.0535888671875,-0.0194091796875,0.069580078125,-1.9389312977099236,-14.625954198473282,-19.35114503816794,pressup
1604239941.7775745,-1.0501708984375,0.032470703125,0.055908203125,1.5419847328244274,-2.0229007633587788,-19.72519083969466,pressup
1604239941.8175745,-1.0504150390625,-0.0592041015625,0.091796875,1.7633587786259541,-8.732824427480915,-13.183206106870228,pressup
1604239941.8575745,-1.1419677734375,0.006103515625,0.095703125,3.145038167938931,-4.717557251908397,-7.908396946564886,pressup
1604239941.8975744,-1.1163330078125,-0.0015869140625,0.056640625,1.2900763358778626,-4.5038167938931295,-3.0763358778625953,pressup
1604239941.9375744,-1.1854248046875,-0.0164794921875,0.085205078125,-0.6106870229007634,3.1526717557251906,2.16793893129771,pressup
1604239941.9775743,-1.1280517578125,-0.0572509765625,0.062744140625,0.7938931297709924,0.05343511450381679,8.122137404580153,pressup
1604239942.0175743,-1.1888427734375,0.000732421875,0.03759765625,1.083969465648855,2.1908396946564888,13.114503816793894,pressup
1604239942.0575743,-1.0721435546875,-0.0689697265625,0.050048828125,4.511450381679389,1.3129770992366412,16.755725190839694,pressup
1604239942.0975742,-1.1075439453125,0.02734375,0.0498046875,2.045801526717557,-0.1297709923664122,22.748091603053435,pressup
1604239942.1375742,-0.9613037109375,0.011474609375,0.052490234375,3.236641221374046,-1.5419847328244274,22.442748091603054,pressup
1604239942.1775742,-1.0030517578125,0.036376953125,0.060791015625,1.702290076335878,3.267175572519084,26.03053435114504,pressup
1604239942.2175741,-0.9207763671875,0.03125,0.04248046875,2.0916030534351147,1.748091603053435,25.328244274809162,pressup
1604239942.257574,-0.9285888671875,0.0888671875,0.03125,1.465648854961832,13.65648854961832,26.702290076335878,pressup
1604239942.297574,-0.9515380859375,0.074462890625,0.034423828125,-0.6870229007633588,4.175572519083969,23.81679389312977,pressup
1604239942.337574,-0.8880615234375,0.13671875,0.001220703125,1.916030534351145,9.641221374045802,25.290076335877863,pressup
1604239942.377574,-0.8936767578125,0.1396484375,0.030029296875,-1.381679389312977,6.862595419847328,22.66412213740458,pressup
1604239942.417574,-0.8411865234375,0.16845703125,-0.0018310546875,0.25190839694656486,4.587786259541985,19.72519083969466,pressup
1604239942.457574,-0.8111572265625,0.174560546875,0.006591796875,0.9923664122137404,4.641221374045801,15.564885496183207,pressup
1604239942.4975739,-0.8040771484375,0.1611328125,-0.0211181640625,-1.0610687022900764,-0.17557251908396945,6.603053435114504,pressup
1604239942.5375738,-0.7286376953125,0.173828125,0.00146484375,-1.4122137404580153,1.4045801526717556,-4.709923664122138,pressup
1604239942.5775738,-0.6536865234375,0.22705078125,-0.0443115234375,-3.1526717557251906,-0.9618320610687023,-7.847328244274809,pressup
1604239942.6175737,-0.7247314453125,0.22998046875,-0.0135498046875,-0.9694656488549618,2.5572519083969465,-14.435114503816793,pressup
1604239942.6575737,-0.8431396484375,0.190185546875,-0.0015869140625,-0.732824427480916,-3.351145038167939,-14.068702290076336,pressup
1604239942.6975737,-0.9232177734375,0.202392578125,0.008544921875,-2.7557251908396947,-6.183206106870229,-17.65648854961832,pressup
1604239942.7375736,-0.8995361328125,0.090087890625,0.015869140625,-2.312977099236641,-0.45038167938931295,-24.03053435114504,pressup
1604239942.7775736,-0.9403076171875,0.108642578125,0.01220703125,-1.9618320610687023,-6.969465648854962,-23.0,pressup
1604239942.8175735,-0.8787841796875,0.1015625,0.019287109375,-1.3358778625954197,-5.374045801526718,-26.00763358778626,pressup
1604239942.8575735,-0.9561767578125,0.041259765625,0.053466796875,-0.7633587786259542,-8.297709923664122,-23.236641221374047,pressup
1604239942.8975735,-0.9508056640625,0.0537109375,0.038818359375,1.0,-8.687022900763358,-25.38167938931298,pressup
1604239942.9375734,-0.9598388671875,0.043701171875,0.04248046875,0.07633587786259542,-0.4122137404580153,-24.6793893129771,pressup
1604239942.9775734,-1.0355224609375,0.011962890625,0.06298828125,0.3969465648854962,-1.8091603053435115,-22.083969465648856,pressup
1604239943.0175734,-1.0594482421875,-0.0050048828125,0.066162109375,0.6564885496183206,-4.450381679389313,-19.389312977099237,pressup
1604239943.0575733,-1.0577392578125,-0.0272216796875,0.034912109375,-0.7404580152671756,-8.083969465648854,-16.229007633587788,pressup
1604239943.0975733,-1.0362548828125,0.017578125,0.019287109375,1.0076335877862594,-0.8320610687022901,-12.007633587786259,pressup
1604239943.1375732,-1.0838623046875,-0.0635986328125,0.033203125,1.717557251908397,-3.519083969465649,-6.679389312977099,pressup
1604239943.1775732,-1.1561279296875,-0.0018310546875,0.02685546875,1.7328244274809161,-0.24427480916030533,-3.3969465648854964,pressup
1604239943.2175732,-1.1309814453125,-0.0494384765625,0.021728515625,2.33587786259542,5.534351145038168,1.0381679389312977,pressup
1604239943.2575731,-1.2064208984375,-0.0245361328125,0.047607421875,0.8091603053435115,4.068702290076335,10.48091603053435,pressup
1604239943.297573,-1.1929931640625,-0.0462646484375,0.030517578125,-0.5877862595419847,-2.183206106870229,14.587786259541986,pressup
1604239943.337573,-1.0672607421875,-0.0667724609375,0.0322265625,0.32061068702290074,1.2061068702290076,14.709923664122137,pressup
1604239943.377573,-1.0609130859375,-0.0167236328125,0.078125,4.206106870229007,3.648854961832061,22.557251908396946,pressup
1604239943.417573,-1.0535888671875,-0.0072021484375,0.03271484375,3.7099236641221376,-7.984732824427481,24.709923664122137,pressup
1604239943.457573,-0.9290771484375,0.031005859375,0.03564453125,5.587786259541985,-0.3511450381679389,24.748091603053435,pressup
1604239943.497573,-0.9537353515625,0.035400390625,0.014892578125,2.648854961832061,-0.9083969465648855,30.061068702290076,pressup
1604239943.5375729,-0.9310302734375,0.043701171875,0.0439453125,1.9923664122137406,7.595419847328245,24.763358778625953,pressup
1604239943.5775728,-0.9876708984375,0.066162109375,0.038818359375,3.0610687022900764,6.3816793893129775,27.557251908396946,pressup
1604239943.6175728,-0.9698486328125,0.14990234375,0.0078125,3.49618320610687,6.129770992366412,26.893129770992367,pressup
1604239943.6575727,-0.8970947265625,0.14990234375,0.0126953125,2.5419847328244276,5.770992366412214,26.015267175572518,pressup
1604239943.6975727,-0.8634033203125,0.13427734375,-0.0106201171875,0.366412213740458,4.236641221374046,27.374045801526716,pressup
1604239943.7375727,-0.8223876953125,0.228759765625,-0.0242919921875,1.6946564885496183,3.3282442748091605,21.198473282442748,pressup
1604239943.7775726,-0.7362060546875,0.13623046875,-0.0347900390625,1.381679389312977,2.5419847328244276,13.381679389312977,pressup
1604239943.8175726,-0.6883544921875,0.196533203125,-0.0125732421875,2.1603053435114505,3.854961832061069,2.312977099236641,pressup
1604239943.8575726,-0.6553955078125,0.2001953125,-0.0174560546875,2.4427480916030535,4.3816793893129775,-5.6183206106870225,pressup
1604239943.8975725,-0.6878662109375,0.23828125,-0.0296630859375,1.6259541984732824,0.030534351145038167,-14.274809160305344,pressup
1604239943.9375725,-0.7113037109375,0.260986328125,-0.0250244140625,2.816793893129771,0.9083969465648855,-18.6793893129771,pressup
1604239943.9775724,-0.8482666015625,0.2734375,-0.0260009765625,1.1221374045801527,-0.7099236641221374,-14.854961832061068,pressup
1604239944.0175724,-0.8702392578125,0.173095703125,-0.0155029296875,1.297709923664122,-7.9465648854961835,-19.51145038167939,pressup
1604239944.0575724,-0.9342041015625,0.12646484375,-0.0069580078125,-0.7175572519083969,-3.1526717557251906,-22.374045801526716,pressup
1604239944.0975723,-0.9202880859375,0.10498046875,-0.0035400390625,-0.6870229007633588,-1.366412213740458,-27.786259541984734,pressup
1604239944.1375723,-0.9385986328125,0.098388671875,-0.0291748046875,0.7786259541984732,-3.1908396946564888,-27.091603053435115,pressup
1604239944.1775723,-0.9420166015625,0.05517578125,0.011962890625,-0.7862595419847328,-9.748091603053435,-24.641221374045802,pressup
1604239944.2175722,-0.9998779296875,0.02197265625,0.02685546875,1.6717557251908397,-11.419847328244275,-24.282442748091604,pressup
1604239944.2575722,-1.0120849609375,0.014404296875,0.064208984375,1.9618320610687023,-10.068702290076336,-19.580152671755727,pressup
1604239944.2975721,-1.0330810546875,-0.0321044921875,-0.0028076171875,-0.8854961832061069,-8.229007633587786,-19.03053435114504,pressup
1604239944.337572,-1.0850830078125,0.0263671875,-0.0045166015625,-2.8625954198473282,-6.198473282442748,-20.702290076335878,pressup
1604239944.377572,-1.0472412109375,-0.0404052734375,0.03173828125,-0.6412213740458015,-1.0916030534351144,-14.488549618320612,pressup
1604239944.417572,-1.2103271484375,-0.0062255859375,0.064697265625,0.030534351145038167,-9.404580152671755,-8.587786259541986,pressup
1604239944.457572,-1.0157470703125,-0.0379638671875,0.007080078125,-0.20610687022900764,-13.938931297709924,-6.190839694656488,pressup
1604239944.497572,-1.1202392578125,0.00732421875,0.05908203125,0.8549618320610687,1.2366412213740459,1.366412213740458,pressup
1604239944.537572,-1.1256103515625,-0.0198974609375,0.051025390625,1.7328244274809161,-5.717557251908397,3.4885496183206106,pressup
1604239944.5775719,-1.1568603515625,-0.0406494140625,0.0615234375,0.15267175572519084,-0.03816793893129771,8.587786259541986,pressup
1604239944.6175718,-1.0589599609375,-0.0162353515625,0.058837890625,0.9465648854961832,-0.05343511450381679,11.83206106870229,pressup
1604239944.6575718,-1.1070556640625,-0.0367431640625,0.04833984375,0.45038167938931295,3.717557251908397,15.992366412213741,pressup
1604239944.6975718,-1.0089111328125,0.0146484375,0.04052734375,1.7328244274809161,-5.221374045801527,18.14503816793893,pressup
1604239944.7375717,-1.0203857421875,0.00927734375,0.001953125,-0.5038167938931297,-5.541984732824427,22.786259541984734,pressup
1604239944.7775717,-0.9058837890625,-0.0023193359375,0.047119140625,3.3053435114503817,5.236641221374046,19.786259541984734,pressup
1604239944.8175716,-1.0567626953125,0.061279296875,0.09228515625,5.679389312977099,0.04580152671755725,24.396946564885496,pressup
1604239944.8575716,-0.9759521484375,0.126953125,0.045654296875,4.1603053435114505,-6.625954198473282,25.35114503816794,pressup
1604239944.8975716,-0.9307861328125,0.09912109375,0.038330078125,4.404580152671755,2.213740458015267,22.82442748091603,pressup
1604239944.9375715,-0.9342041015625,0.115478515625,0.038330078125,3.763358778625954,6.900763358778626,27.18320610687023,pressup
1604239944.9775715,-0.9637451171875,0.10693359375,0.009765625,3.8625954198473282,-0.8931297709923665,23.770992366412212,pressup
1604239945.0175714,-0.8385009765625,0.149658203125,0.036376953125,5.854961832061068,18.27480916030534,18.87786259541985,pressup
1604239945.0575714,-0.9461669921875,0.170166015625,0.02978515625,4.633587786259542,7.687022900763359,20.137404580152673,pressup
1604239945.0975714,-0.8170166015625,0.23193359375,0.03466796875,7.778625954198473,11.801526717557252,13.83969465648855,pressup
1604239945.1375713,-0.8519287109375,0.2060546875,-0.0172119140625,2.2290076335877864,-0.8473282442748091,13.610687022900763,pressup
1604239945.1775713,-0.6463623046875,0.193115234375,-0.0723876953125,0.5038167938931297,10.13740458015267,3.7251908396946565,pressup
1604239945.2175713,-0.7430419921875,0.170166015625,-0.0408935546875,1.7633587786259541,10.717557251908397,-6.251908396946565,pressup
1604239945.2575712,-0.7730712890625,0.23828125,-0.0584716796875,3.2442748091603053,-5.740458015267175,-10.969465648854962,pressup
1604239945.2975712,-0.6600341796875,0.244384765625,-0.0933837890625,3.2213740458015265,-8.557251908396946,-12.114503816793894,pressup
1604239945.3375711,-0.8284912109375,0.193115234375,-0.0201416015625,-0.5725190839694656,-1.297709923664122,-12.50381679389313,pressup
1604239945.377571,-0.8795166015625,0.181640625,-0.0208740234375,-1.7709923664122138,-8.312977099236642,-20.137404580152673,pressup
1604239945.417571,-0.8948974609375,0.1201171875,-0.0618896484375,-4.022900763358779,-6.366412213740458,-22.916030534351144,pressup
1604239945.457571,-0.8516845703125,0.109130859375,-0.0318603515625,-2.7480916030534353,-1.1908396946564885,-27.206106870229007,pressup
1604239945.497571,-0.9569091796875,0.10791015625,-0.0233154296875,-0.7862595419847328,-0.5801526717557252,-27.045801526717558,pressup
1604239945.537571,-0.9903564453125,0.0556640625,-0.0028076171875,-1.7099236641221374,-7.358778625954199,-27.610687022900763,pressup
1604239945.577571,-0.9703369140625,0.033935546875,0.025146484375,0.6946564885496184,-7.748091603053435,-27.923664122137403,pressup
1604239945.6175709,-1.0242919921875,0.06201171875,-0.0189208984375,-2.0916030534351147,-3.7099236641221376,-27.076335877862597,pressup
1604239945.6575708,-1.0189208984375,-0.0032958984375,0.04248046875,-4.106870229007634,-8.717557251908397,-20.129770992366414,pressup
1604239945.6975708,-1.0001220703125,-0.0228271484375,-0.0037841796875,-3.0076335877862594,-10.877862595419847,-15.625954198473282,pressup
1604239945.7375708,-1.0416259765625,0.0126953125,0.0263671875,-1.2671755725190839,-3.7251908396946565,-18.297709923664122,pressup
1604239945.7775707,-1.1114501953125,-0.0103759765625,0.037841796875,0.366412213740458,-6.450381679389313,-11.900763358778626,pressup
1604239945.8175707,-1.1741943359375,0.0263671875,0.080078125,0.7786259541984732,-7.290076335877862,-5.6106870229007635,pressup
1604239945.8575706,-1.1414794921875,-0.0299072265625,0.07373046875,1.1068702290076335,-6.33587786259542,3.717557251908397,pressup
1604239945.8975706,-1.2711181640625,-0.0401611328125,0.086669921875,0.5267175572519084,-6.236641221374046,3.931297709923664,pressup
1604239945.9375706,-1.1114501953125,-0.0179443359375,0.046142578125,0.2366412213740458,-6.404580152671755,10.374045801526718,pressup
1604239945.9775705,-1.0423583984375,-0.0802001953125,0.034423828125,2.2900763358778624,0.29770992366412213,16.786259541984734,pressup
1604239946.0175705,-1.0616455078125,0.0537109375,0.042724609375,2.7786259541984735,-0.4122137404580153,15.580152671755725,pressup
1604239946.0575705,-0.9749755859375,-0.0093994140625,0.068603515625,2.5801526717557253,3.213740458015267,17.954198473282442,pressup
1604239946.0975704,-0.9552001953125,-0.0296630859375,0.07861328125,1.748091603053435,3.4122137404580153,20.27480916030534,pressup
1604239946.1375704,-0.9957275390625,0.090087890625,0.05224609375,2.16793893129771,5.366412213740458,25.770992366412212,pressup
1604239946.1775703,-1.0035400390625,0.026611328125,0.034912109375,1.6641221374045803,-2.7251908396946565,25.03053435114504,pressup
1604239946.2175703,-0.9798583984375,0.130615234375,0.05224609375,4.679389312977099,3.2977099236641223,23.717557251908396,pressup
1604239946.2575703,-0.9129638671875,0.0849609375,-0.0050048828125,2.618320610687023,-1.6259541984732824,27.0,pressup
1604239946.2975702,-0.9034423828125,0.14794921875,0.02783203125,2.6030534351145036,11.229007633587786,21.763358778625953,pressup
1604239946.3375702,-0.8367919921875,0.145751953125,-0.0206298828125,-0.5877862595419847,7.1679389312977095,22.65648854961832,pressup
1604239946.3775702,-0.8687744140625,0.192138671875,-0.0198974609375,-0.46564885496183206,13.931297709923664,17.236641221374047,pressup
1604239946.41757,-0.7459716796875,0.194580078125,-0.0457763671875,-0.5877862595419847,12.541984732824428,10.01526717557252,pressup
1604239946.45757,-0.7803955078125,0.13623046875,-0.0203857421875,-0.8244274809160306,15.038167938931299,5.305343511450381,pressup
1604239946.49757,-0.7689208984375,0.214599609375,-0.0111083984375,2.564885496183206,5.732824427480916,-3.8244274809160306,pressup
1604239946.53757,-0.7625732421875,0.215087890625,-0.0460205078125,2.053435114503817,-1.0916030534351144,-7.969465648854962,pressup
1604239946.57757,-0.7611083984375,0.242919921875,-0.0274658203125,3.3282442748091605,-4.1679389312977095,-14.84732824427481,pressup
1604239946.61757,-0.7403564453125,0.20751953125,-0.0355224609375,3.8931297709923665,-7.709923664122138,-12.488549618320612,pressup
1604239946.65757,-0.8387451171875,0.180419921875,-0.0206298828125,1.1526717557251909,-8.16030534351145,-13.732824427480915,pressup
1604239946.6975698,-0.8690185546875,0.14794921875,-0.0230712890625,1.2213740458015268,-6.282442748091603,-22.65648854961832,pressup
1604239946.7375698,-0.9005126953125,0.113525390625,-0.0167236328125,-0.11450381679389313,-3.6946564885496183,-23.625954198473284,pressup
1604239946.7775698,-0.9005126953125,0.06689453125,-0.0120849609375,-0.8320610687022901,-6.4961832061068705,-27.519083969465647,pressup
1604239946.8175697,-1.0069580078125,0.047119140625,0.037353515625,0.5572519083969466,4.091603053435114,-26.587786259541986,pressup
1604239946.8575697,-1.0416259765625,0.01220703125,0.03369140625,0.3053435114503817,-6.3816793893129775,-25.129770992366414,pressup
1604239946.8975697,-1.0372314453125,0.014892578125,-0.0155029296875,1.4198473282442747,-3.427480916030534,-24.65648854961832,pressup
1604239946.9375696,-1.0657958984375,0.017333984375,0.003662109375,1.1526717557251909,-11.946564885496183,-17.404580152671755,pressup
1604239946.9775696,-1.0616455078125,-0.0394287109375,0.013671875,2.877862595419847,-9.358778625954198,-15.51908396946565,pressup
1604239947.0175695,-1.0433349609375,-0.0240478515625,0.038818359375,3.7404580152671754,-13.083969465648854,-13.01526717557252,pressup
1604239947.0575695,-1.1011962890625,0.00634765625,0.0810546875,5.267175572519084,-10.877862595419847,-6.015267175572519,pressup
1604239947.0975695,-1.1658935546875,0.0322265625,0.047607421875,5.809160305343512,-2.2595419847328246,-1.7099236641221374,pressup
1604239947.1375694,-1.1505126953125,-0.0047607421875,0.036865234375,1.1603053435114503,-0.46564885496183206,2.549618320610687,pressup
1604239947.1775694,-1.2308349609375,-0.0274658203125,0.058349609375,0.5038167938931297,5.748091603053435,8.709923664122137,pressup
1604239947.2175694,-1.1676025390625,-0.0560302734375,0.0263671875,-0.2824427480916031,0.33587786259541985,11.633587786259541,pressup
1604239947.2575693,-1.0965576171875,-0.0347900390625,-0.0145263671875,2.2290076335877864,0.9847328244274809,16.404580152671755,pressup
1604239947.2975693,-1.0452880859375,-0.0179443359375,0.0009765625,3.267175572519084,-1.4732824427480915,17.51145038167939,pressup
1604239947.3375692,-0.9859619140625,0.04150390625,-0.0010986328125,3.885496183206107,-0.4732824427480916,20.282442748091604,pressup
1604239947.3775692,-0.9390869140625,0.00732421875,0.05029296875,2.435114503816794,1.015267175572519,24.870229007633586,pressup
1604239947.4175692,-0.9896240234375,0.087158203125,0.050048828125,3.0,0.9389312977099237,26.404580152671755,pressup
1604239947.4575691,-0.9451904296875,0.080078125,0.008544921875,-1.0305343511450382,0.2366412213740458,26.49618320610687,pressup
1604239947.497569,-0.8936767578125,0.08837890625,0.033447265625,-0.2824427480916031,7.534351145038168,25.061068702290076,pressup
1604239947.537569,-0.9447021484375,0.133056640625,0.0126953125,0.5877862595419847,-0.3893129770992366,26.81679389312977,pressup
1604239947.577569,-0.8507080078125,0.126953125,-0.0023193359375,-0.48854961832061067,6.419847328244275,23.610687022900763,pressup
1604239947.617569,-0.8868408203125,0.211181640625,0.0302734375,-0.6030534351145038,5.229007633587786,17.442748091603054,pressup
1604239947.657569,-0.7962646484375,0.182373046875,0.017822265625,-0.06870229007633588,0.366412213740458,15.732824427480915,pressup
1604239947.697569,-0.7567138671875,0.166259765625,0.0234375,-1.3969465648854962,4.404580152671755,9.351145038167939,pressup
1604239947.7375689,-0.7440185546875,0.232666015625,-0.0006103515625,-0.5038167938931297,0.35877862595419846,1.900763358778626,pressup
1604239947.7775688,-0.6798095703125,0.16748046875,-0.0323486328125,0.13740458015267176,-0.33587786259541985,-7.0458015267175576,pressup
1604239947.8175688,-0.7288818359375,0.259521484375,-0.0443115234375,-0.183206106870229,4.0534351145038165,-14.0,pressup
1604239947.8575687,-0.7718505859375,0.213623046875,0.0029296875,0.16030534351145037,5.5038167938931295,-14.221374045801527,pressup
1604239947.8975687,-0.8890380859375,0.202392578125,-0.0035400390625,-1.2748091603053435,-3.6946564885496183,-15.0,pressup
1604239947.9375687,-0.8983154296875,0.11328125,-0.0147705078125,-0.8931297709923665,-0.21374045801526717,-22.87786259541985,pressup
1604239947.9775686,-0.8912353515625,0.133544921875,0.021484375,0.3053435114503817,-0.9541984732824428,-25.984732824427482,pressup
1604239948.0175686,-0.9259033203125,0.119873046875,-0.0042724609375,-0.1450381679389313,-4.587786259541985,-27.015267175572518,pressup
1604239948.0575686,-0.8851318359375,0.0986328125,0.010009765625,1.1908396946564885,-7.00763358778626,-26.221374045801525,pressup
1604239948.0975685,-0.9005126953125,0.050537109375,-0.0733642578125,-3.0916030534351147,2.2442748091603053,-24.267175572519083,pressup
1604239948.1375685,-1.0733642578125,0.03173828125,0.075439453125,0.0,-6.061068702290076,-25.244274809160306,pressup
1604239948.1775684,-1.0784912109375,-0.0501708984375,0.0048828125,-1.9694656488549618,-6.908396946564886,-21.290076335877863,pressup
1604239948.2175684,-1.0736083984375,-0.0269775390625,-0.0145263671875,-2.16793893129771,-12.534351145038167,-20.50381679389313,pressup
1604239948.2575684,-0.9244384765625,-0.0062255859375,0.0068359375,1.3740458015267176,-3.732824427480916,-18.85496183206107,pressup
1604239948.2975683,-1.1138916015625,-0.0469970703125,0.058837890625,1.717557251908397,-3.33587786259542,-15.435114503816793,pressup
1604239948.3375683,-1.0614013671875,0.004150390625,0.039306640625,3.885496183206107,-2.099236641221374,-16.404580152671755,pressup
1604239948.3775682,-1.1182861328125,-0.0333251953125,0.08251953125,-0.6793893129770993,-1.2595419847328244,-5.969465648854962,pressup
1604239948.4175682,-1.1593017578125,-0.0281982421875,0.025146484375,-0.007633587786259542,-11.251908396946565,-1.2595419847328244,pressup
1604239948.4575682,-1.0726318359375,-0.0118408203125,0.01953125,0.2900763358778626,-3.427480916030534,4.687022900763359,pressup
1604239948.4975681,-1.1339111328125,-0.0858154296875,0.031005859375,3.8702290076335877,-1.5801526717557253,8.030534351145038,pressup
1604239948.537568,-1.1563720703125,0.021728515625,0.025146484375,2.9923664122137406,-3.8625954198473282,12.15267175572519,pressup
1604239948.577568,-1.1080322265625,-0.0853271484375,0.03955078125,4.687022900763359,-0.816793893129771,14.404580152671755,pressup
1604239948.617568,-1.0364990234375,-0.0089111328125,0.083984375,5.259541984732825,-5.076335877862595,15.870229007633588,pressup
1604239948.657568,-0.9700927734375,0.044921875,0.043701171875,4.190839694656488,-3.4885496183206106,24.38167938931298,pressup
1604239948.697568,-0.9937744140625,0.0224609375,0.0576171875,4.6183206106870225,-3.1297709923664123,20.595419847328245,pressup
1604239948.737568,-0.8907470703125,0.04443359375,0.00048828125,1.465648854961832,3.2595419847328246,23.549618320610687,pressup
1604239948.7775679,-0.9969482421875,0.055908203125,0.015380859375,0.09923664122137404,2.1755725190839694,24.358778625954198,pressup
1604239948.8175678,-0.9197998046875,0.039306640625,0.036376953125,2.3740458015267176,3.6564885496183206,23.48854961832061,pressup
1604239948.8575678,-0.9869384765625,0.0908203125,0.025634765625,1.5419847328244274,2.7480916030534353,23.12213740458015,pressup
1604239948.8975677,-0.9024658203125,0.086669921875,0.01611328125,2.7099236641221376,2.5419847328244276,23.81679389312977,pressup
1604239948.9375677,-0.9678955078125,0.13427734375,0.02734375,0.6183206106870229,3.7251908396946565,23.53435114503817,pressup
1604239948.9775677,-0.8692626953125,0.144287109375,0.020751953125,1.1984732824427482,1.9236641221374047,19.213740458015266,pressup
1604239949.0175676,-0.8668212890625,0.16650390625,0.016845703125,0.7557251908396947,5.404580152671755,19.748091603053435,pressup
1604239949.0575676,-0.8514404296875,0.173583984375,0.029052734375,1.5267175572519085,2.030534351145038,14.091603053435115,pressup
1604239949.0975676,-0.8326416015625,0.181396484375,0.025634765625,0.9694656488549618,6.488549618320611,8.442748091603054,pressup
1604239949.1375675,-0.8057861328125,0.20849609375,-0.0211181640625,-0.3893129770992366,6.343511450381679,2.687022900763359,pressup
1604239949.1775675,-0.8717041015625,0.192626953125,0.011962890625,-1.1603053435114503,7.740458015267175,2.0229007633587788,pressup
1604239949.2175674,-0.8482666015625,0.2216796875,-0.0140380859375,1.251908396946565,-1.633587786259542,-5.213740458015267,pressup
1604239949.2575674,-0.7720947265625,0.213134765625,0.025634765625,3.427480916030534,2.045801526717557,-1.5114503816793894,pressup
1604239949.2975674,-0.9066162109375,0.201904296875,-0.0062255859375,1.2290076335877862,-2.633587786259542,-1.3587786259541985,pressup
1604239949.3375673,-0.8118896484375,0.232421875,0.0,3.0610687022900764,-2.854961832061069,-11.587786259541986,pressup
1604239949.3775673,-0.8404541015625,0.1708984375,-0.0328369140625,-1.1755725190839694,5.419847328244275,-7.038167938931298,pressup
1604239949.4175673,-0.8863525390625,0.21044921875,-0.0152587890625,-0.1297709923664122,-3.0381679389312977,-15.885496183206106,pressup
1604239949.4575672,-0.8126220703125,0.136474609375,-0.0552978515625,-2.4885496183206106,0.6564885496183206,-17.33587786259542,pressup
1604239949.4975672,-0.9305419921875,0.15869140625,-0.0355224609375,0.8320610687022901,4.648854961832061,-19.6793893129771,pressup
1604239949.5375671,-0.9041748046875,0.1123046875,-0.0411376953125,-0.5801526717557252,-3.9923664122137406,-22.64885496183206,pressup
1604239949.577567,-0.8785400390625,0.0966796875,-0.0584716796875,-0.08396946564885496,2.2442748091603053,-25.68702290076336,pressup
1604239949.617567,-0.9156494140625,0.083984375,-0.0418701171875,-3.3740458015267176,0.3282442748091603,-23.236641221374047,pressup
1604239949.657567,-1.0186767578125,0.055908203125,-0.0599365234375,-3.351145038167939,2.564885496183206,-26.541984732824428,pressup
1604239949.697567,-0.9981689453125,0.041015625,0.00244140625,-1.4351145038167938,-9.412213740458014,-21.53435114503817,pressup
1604239949.737567,-1.0399169921875,0.001708984375,-0.0028076171875,-0.7022900763358778,-14.778625954198473,-18.900763358778626,pressup
1604239949.777567,-1.0198974609375,-0.0423583984375,0.013916015625,-0.030534351145038167,-10.297709923664122,-18.33587786259542,pressup
1604239949.8175669,-1.0386962890625,-0.0147705078125,0.048828125,3.267175572519084,-12.877862595419847,-17.61832061068702,pressup
1604239949.8575668,-1.0684814453125,0.019775390625,0.078125,3.984732824427481,-9.854961832061068,-13.106870229007633,pressup
1604239949.8975668,-1.0479736328125,0.033447265625,0.02197265625,2.7251908396946565,-15.572519083969466,-9.488549618320612,pressup
1604239949.9375668,-1.0677490234375,-0.0023193359375,0.0498046875,-0.4732824427480916,-10.84732824427481,-2.4427480916030535,pressup
1604239949.9775667,-1.0389404296875,-0.0179443359375,0.046630859375,-0.9541984732824428,-7.763358778625954,-1.717557251908397,pressup
1604239950.0175667,-1.0728759765625,-0.0303955078125,0.046142578125,0.8854961832061069,0.3893129770992366,2.8396946564885495,pressup
1604239950.0575666,-1.1280517578125,-0.0335693359375,0.068603515625,2.0763358778625953,0.6564885496183206,4.2748091603053435,pressup
1604239950.0975666,-1.1124267578125,-0.0250244140625,0.046630859375,3.3740458015267176,-1.0229007633587786,7.114503816793893,pressup
1604239950.1375666,-1.0687255859375,-0.0408935546875,0.080810546875,3.1755725190839694,2.7480916030534353,10.038167938931299,pressup
1604239950.1775665,-1.0897216796875,0.001708984375,0.064697265625,1.4885496183206106,-4.022900763358779,13.206106870229007,pressup
1604239950.2175665,-0.9708251953125,0.005615234375,0.038330078125,-0.04580152671755725,-0.183206106870229,17.206106870229007,pressup
1604239950.2575665,-0.9744873046875,-0.0130615234375,0.0478515625,2.267175572519084,-4.152671755725191,15.007633587786259,pressup
1604239950.2975664,-0.8489990234375,0.03271484375,0.034912109375,4.091603053435114,3.6030534351145036,17.16793893129771,pressup
1604239950.3375664,-0.9771728515625,0.060791015625,0.028564453125,3.1526717557251906,1.4809160305343512,17.603053435114504,pressup
1604239950.3775663,-0.9573974609375,0.091796875,0.049072265625,2.854961832061069,5.129770992366412,16.564885496183205,pressup
1604239950.4175663,-0.9234619140625,0.09716796875,0.02587890625,0.5419847328244275,-0.6717557251908397,20.52671755725191,pressup
1604239950.4575663,-0.9234619140625,0.095703125,0.0166015625,4.229007633587786,6.3893129770992365,23.38167938931298,pressup
1604239950.4975662,-0.8670654296875,0.107421875,0.0185546875,7.198473282442748,0.32061068702290074,29.412213740458014,pressup
1604239950.5375662,-0.8099365234375,0.20458984375,0.08056640625,5.541984732824427,13.992366412213741,47.41984732824427,pressup
1604239950.5775661,-0.7972412109375,0.206298828125,0.0009765625,9.259541984732824,2.2290076335877864,61.2442748091603,pressup
1604239950.617566,-0.8912353515625,0.321533203125,0.010986328125,-8.335877862595419,23.48854961832061,77.23664122137404,pressup
1604239950.657566,-0.9234619140625,0.314208984375,-0.0447998046875,1.8473282442748091,6.793893129770993,66.59541984732824,pressup
1604239950.697566,-0.8428955078125,0.28271484375,0.031494140625,2.2213740458015265,17.870229007633586,64.99236641221374,pressup
1604239950.737566,-0.8477783203125,0.462646484375,0.005126953125,-8.312977099236642,44.99236641221374,77.2442748091603,pressup
1604239950.777566,-0.9027099609375,0.385009765625,-0.0025634765625,-13.946564885496183,35.25954198473283,91.50381679389314,pressup
1604239950.817566,-1.0155029296875,0.474853515625,-0.1461181640625,-22.938931297709924,50.06870229007634,99.99236641221374,pressup
1604239950.8575659,-0.8128662109375,0.445068359375,-0.1468505859375,-15.076335877862595,4.557251908396947,107.25954198473282,pressup
1604239950.8975658,-0.7230224609375,0.534912109375,-0.1199951171875,-12.122137404580153,17.66412213740458,103.91603053435115,pressup
1604239950.9375658,-0.6614990234375,0.60400390625,-0.1307373046875,-10.083969465648854,18.229007633587788,107.17557251908397,pressup
1604239950.9775658,-0.5726318359375,0.5908203125,0.0146484375,-19.33587786259542,32.770992366412216,93.70229007633588,pressup
1604239951.0175657,-1.9998779296875,0.902099609375,-0.3289794921875,-14.221374045801527,52.038167938931295,31.16793893129771,pressup
1604239951.0575657,-0.4359130859375,0.715576171875,-0.1353759765625,-12.282442748091603,-44.587786259541986,55.06106870229008,pressup
1604239951.0975657,-0.2520751953125,0.776123046875,0.009521484375,-35.16030534351145,11.885496183206106,80.31297709923665,pressup
1604239951.1375656,0.123779296875,1.01318359375,-0.1964111328125,-19.137404580152673,59.732824427480914,70.30534351145039,pressup
1604239951.1775656,-0.4947509765625,0.5576171875,-0.1495361328125,-10.793893129770993,5.557251908396947,99.46564885496183,pressup
1604239951.2175655,-0.3253173828125,0.751708984375,-0.0064697265625,-13.65648854961832,-51.603053435114504,72.32824427480917,pressup
1604239951.2575655,-0.3343505859375,0.927001953125,-0.0489501953125,-5.885496183206107,-8.267175572519085,83.76335877862596,pressup
1604239951.2975655,-0.1878662109375,0.997314453125,0.105224609375,4.641221374045801,5.0458015267175576,70.77099236641222,pressup
1604239951.3375654,-0.0997314453125,0.978271484375,0.044921875,2.0916030534351147,-3.1374045801526718,64.72519083969466,pressup
1604239951.3775654,0.0634765625,0.989990234375,-0.1024169921875,12.221374045801527,7.702290076335878,59.603053435114504,pressup
1604239951.4175653,-0.1531982421875,0.853271484375,-0.1395263671875,13.381679389312977,15.206106870229007,54.01526717557252,pressup
1604239951.4575653,-0.1114501953125,1.033203125,-0.1190185546875,11.67175572519084,23.389312977099237,49.282442748091604,pressup
1604239951.4975653,-0.0308837890625,1.015869140625,-0.1158447265625,6.00763358778626,27.404580152671755,41.93129770992366,pressup
1604239951.5375652,-0.0028076171875,0.94775390625,-0.2415771484375,7.1603053435114505,9.34351145038168,32.908396946564885,pressup
1604239951.5775652,0.02392578125,0.96826171875,-0.2025146484375,-5.4961832061068705,13.625954198473282,28.740458015267176,pressup
1604239951.6175652,0.00537109375,1.019287109375,-0.0848388671875,-4.526717557251908,3.045801526717557,20.282442748091604,pressup
1604239951.657565,-0.0057373046875,0.977783203125,-0.1087646484375,-1.5954198473282444,4.816793893129771,14.450381679389313,pressup
1604239951.697565,0.054931640625,0.994140625,-0.1480712890625,-1.4580152671755726,-8.290076335877863,13.664122137404581,pressup
1604239951.737565,0.062744140625,0.992919921875,-0.1019287109375,-4.824427480916031,0.0,10.221374045801527,pressup
1604239951.777565,0.0595703125,0.966552734375,-0.1129150390625,-3.0610687022900764,17.587786259541986,7.480916030534351,pressup
1604239951.817565,-0.0247802734375,0.981689453125,-0.0609130859375,-4.267175572519084,15.80916030534351,2.717557251908397,pressup
1604239951.857565,-0.0079345703125,1.011962890625,-0.0506591796875,-3.2595419847328246,4.702290076335878,3.49618320610687,pressup
1604239951.897565,0.0068359375,0.996826171875,-0.1322021484375,-0.5801526717557252,0.4961832061068702,3.717557251908397,pressup
1604239951.9375648,0.0341796875,0.997802734375,-0.1214599609375,-1.1221374045801527,2.236641221374046,2.8473282442748094,pressup
1604239951.9775648,0.00439453125,0.96728515625,-0.0899658203125,-1.3587786259541985,5.572519083969466,0.9083969465648855,pressup
1604239952.0175648,0.000732421875,1.014892578125,-0.0775146484375,-0.8702290076335878,-0.648854961832061,-0.07633587786259542,pressup
1604239952.0575647,0.0244140625,0.999267578125,-0.1021728515625,-1.4045801526717556,-3.3053435114503817,-0.2900763358778626,pressup
1604239952.0975647,0.058837890625,1.00732421875,-0.0980224609375,-0.5801526717557252,-2.6793893129770994,-1.366412213740458,pressup
1604239952.1375647,0.035400390625,0.96630859375,-0.0628662109375,-1.5877862595419847,0.8931297709923665,-2.7404580152671754,pressup
1604239952.1775646,0.029052734375,1.000244140625,-0.0826416015625,0.22137404580152673,0.183206106870229,-3.3053435114503817,pressup
1604239952.2175646,0.014404296875,0.98828125,-0.0589599609375,-1.0916030534351144,0.7404580152671756,-4.305343511450381,pressup
1604239952.2575645,0.015869140625,0.9921875,-0.0933837890625,-0.183206106870229,0.46564885496183206,-4.32824427480916,pressup
1604239952.2975645,-0.0035400390625,0.983642578125,-0.0858154296875,0.5725190839694656,0.3053435114503817,-3.801526717557252,pressup
1604239952.3375645,-0.0008544921875,0.98876953125,-0.0792236328125,1.297709923664122,-1.1374045801526718,-1.984732824427481,pressup
1604239952.3775644,-0.0111083984375,0.99951171875,-0.0902099609375,0.9465648854961832,-1.9465648854961832,-3.4656488549618323,pressup
1604239952.4175644,-0.0150146484375,0.99560546875,-0.0826416015625,0.4732824427480916,-0.46564885496183206,-2.7404580152671754,pressup
1604239952.4575644,-0.0133056640625,0.98486328125,-0.0845947265625,1.4732824427480915,-2.7938931297709924,-2.7938931297709924,pressup
1604239952.4975643,-0.0008544921875,0.99560546875,-0.0892333984375,1.2213740458015268,-2.4885496183206106,-1.816793893129771,pressup
1604239952.5375643,-0.0025634765625,0.988037109375,-0.1014404296875,0.48854961832061067,-2.1526717557251906,-1.9923664122137406,pressup
1604239952.5775642,-0.0042724609375,0.99658203125,-0.0931396484375,-0.6106870229007634,-0.816793893129771,-1.0229007633587786,pressup
1604239952.6175642,-0.0306396484375,0.997314453125,-0.0867919921875,0.22137404580152673,-1.633587786259542,-1.1908396946564885,pressup
